Memory Length,4000,
Trigger Level,2.56900e+00,
Source,CH2,
Probe,1.0X,
Vertical Units,V,
Vertical Scale,2.00000e-02,
Vertical Position,-2.78400e-01,
Horizontal Units,S,
Horizontal Scale,2.50000e-02,
Horizontal Position,6.7970000e+00,
Horizontal Mode,Main,
Sampling Period,1.00000e-04,
Firmware,V1.14,
Time, ,
Mode,Detail,
Waveform Data,
6.597000e+0,3.08e-1,
6.597100e+0,3.08e-1,
6.597200e+0,3.08e-1,
6.597300e+0,3.08e-1,
6.597400e+0,3.08e-1,
6.597500e+0,3.08e-1,
6.597600e+0,3.08e-1,
6.597700e+0,3.09e-1,
6.597800e+0,3.09e-1,
6.597900e+0,3.08e-1,
6.598000e+0,3.08e-1,
6.598100e+0,3.09e-1,
6.598200e+0,3.09e-1,
6.598300e+0,3.09e-1,
6.598400e+0,3.09e-1,
6.598500e+0,3.10e-1,
6.598600e+0,3.10e-1,
6.598700e+0,3.10e-1,
6.598800e+0,3.10e-1,
6.598900e+0,3.09e-1,
6.599000e+0,3.09e-1,
6.599100e+0,3.09e-1,
6.599200e+0,3.09e-1,
6.599300e+0,3.10e-1,
6.599400e+0,3.10e-1,
6.599500e+0,3.10e-1,
6.599600e+0,3.10e-1,
6.599700e+0,3.10e-1,
6.599800e+0,3.10e-1,
6.599900e+0,3.10e-1,
6.600000e+0,3.10e-1,
6.600100e+0,3.09e-1,
6.600200e+0,3.09e-1,
6.600300e+0,3.11e-1,
6.600400e+0,3.11e-1,
6.600500e+0,3.11e-1,
6.600600e+0,3.11e-1,
6.600700e+0,3.10e-1,
6.600800e+0,3.10e-1,
6.600900e+0,3.10e-1,
6.601000e+0,3.10e-1,
6.601100e+0,3.11e-1,
6.601200e+0,3.11e-1,
6.601300e+0,3.11e-1,
6.601400e+0,3.11e-1,
6.601500e+0,3.11e-1,
6.601600e+0,3.11e-1,
6.601700e+0,3.11e-1,
6.601800e+0,3.11e-1,
6.601900e+0,3.11e-1,
6.602000e+0,3.11e-1,
6.602100e+0,3.11e-1,
6.602200e+0,3.11e-1,
6.602300e+0,3.11e-1,
6.602400e+0,3.11e-1,
6.602500e+0,3.12e-1,
6.602600e+0,3.12e-1,
6.602700e+0,3.12e-1,
6.602800e+0,3.12e-1,
6.602900e+0,3.12e-1,
6.603000e+0,3.12e-1,
6.603100e+0,3.12e-1,
6.603200e+0,3.12e-1,
6.603300e+0,3.12e-1,
6.603400e+0,3.12e-1,
6.603500e+0,3.12e-1,
6.603600e+0,3.12e-1,
6.603700e+0,3.12e-1,
6.603800e+0,3.12e-1,
6.603900e+0,3.12e-1,
6.604000e+0,3.12e-1,
6.604100e+0,3.12e-1,
6.604200e+0,3.12e-1,
6.604300e+0,3.13e-1,
6.604400e+0,3.13e-1,
6.604500e+0,3.13e-1,
6.604600e+0,3.13e-1,
6.604700e+0,3.13e-1,
6.604800e+0,3.13e-1,
6.604900e+0,3.13e-1,
6.605000e+0,3.13e-1,
6.605100e+0,3.13e-1,
6.605200e+0,3.13e-1,
6.605300e+0,3.13e-1,
6.605400e+0,3.13e-1,
6.605500e+0,3.13e-1,
6.605600e+0,3.13e-1,
6.605700e+0,3.13e-1,
6.605800e+0,3.13e-1,
6.605900e+0,3.14e-1,
6.606000e+0,3.14e-1,
6.606100e+0,3.14e-1,
6.606200e+0,3.14e-1,
6.606300e+0,3.14e-1,
6.606400e+0,3.14e-1,
6.606500e+0,3.15e-1,
6.606600e+0,3.15e-1,
6.606700e+0,3.15e-1,
6.606800e+0,3.15e-1,
6.606900e+0,3.16e-1,
6.607000e+0,3.16e-1,
6.607100e+0,3.15e-1,
6.607200e+0,3.15e-1,
6.607300e+0,3.15e-1,
6.607400e+0,3.15e-1,
6.607500e+0,3.15e-1,
6.607600e+0,3.15e-1,
6.607700e+0,3.16e-1,
6.607800e+0,3.16e-1,
6.607900e+0,3.16e-1,
6.608000e+0,3.16e-1,
6.608100e+0,3.16e-1,
6.608200e+0,3.16e-1,
6.608300e+0,3.16e-1,
6.608400e+0,3.16e-1,
6.608500e+0,3.16e-1,
6.608600e+0,3.16e-1,
6.608700e+0,3.16e-1,
6.608800e+0,3.16e-1,
6.608900e+0,3.16e-1,
6.609000e+0,3.16e-1,
6.609100e+0,3.17e-1,
6.609200e+0,3.17e-1,
6.609300e+0,3.17e-1,
6.609400e+0,3.17e-1,
6.609500e+0,3.17e-1,
6.609600e+0,3.17e-1,
6.609700e+0,3.17e-1,
6.609800e+0,3.17e-1,
6.609900e+0,3.18e-1,
6.610000e+0,3.18e-1,
6.610100e+0,3.18e-1,
6.610200e+0,3.18e-1,
6.610300e+0,3.17e-1,
6.610400e+0,3.17e-1,
6.610500e+0,3.19e-1,
6.610600e+0,3.19e-1,
6.610700e+0,3.18e-1,
6.610800e+0,3.18e-1,
6.610900e+0,3.20e-1,
6.611000e+0,3.20e-1,
6.611100e+0,3.19e-1,
6.611200e+0,3.19e-1,
6.611300e+0,3.20e-1,
6.611400e+0,3.20e-1,
6.611500e+0,3.20e-1,
6.611600e+0,3.20e-1,
6.611700e+0,3.20e-1,
6.611800e+0,3.20e-1,
6.611900e+0,3.20e-1,
6.612000e+0,3.20e-1,
6.612100e+0,3.20e-1,
6.612200e+0,3.20e-1,
6.612300e+0,3.20e-1,
6.612400e+0,3.20e-1,
6.612500e+0,3.20e-1,
6.612600e+0,3.20e-1,
6.612700e+0,3.20e-1,
6.612800e+0,3.20e-1,
6.612900e+0,3.20e-1,
6.613000e+0,3.20e-1,
6.613100e+0,3.20e-1,
6.613200e+0,3.20e-1,
6.613300e+0,3.21e-1,
6.613400e+0,3.21e-1,
6.613500e+0,3.21e-1,
6.613600e+0,3.21e-1,
6.613700e+0,3.21e-1,
6.613800e+0,3.21e-1,
6.613900e+0,3.21e-1,
6.614000e+0,3.21e-1,
6.614100e+0,3.21e-1,
6.614200e+0,3.21e-1,
6.614300e+0,3.22e-1,
6.614400e+0,3.22e-1,
6.614500e+0,3.23e-1,
6.614600e+0,3.23e-1,
6.614700e+0,3.23e-1,
6.614800e+0,3.23e-1,
6.614900e+0,3.23e-1,
6.615000e+0,3.23e-1,
6.615100e+0,3.23e-1,
6.615200e+0,3.23e-1,
6.615300e+0,3.23e-1,
6.615400e+0,3.23e-1,
6.615500e+0,3.23e-1,
6.615600e+0,3.23e-1,
6.615700e+0,3.23e-1,
6.615800e+0,3.23e-1,
6.615900e+0,3.24e-1,
6.616000e+0,3.24e-1,
6.616100e+0,3.24e-1,
6.616200e+0,3.24e-1,
6.616300e+0,3.24e-1,
6.616400e+0,3.24e-1,
6.616500e+0,3.24e-1,
6.616600e+0,3.24e-1,
6.616700e+0,3.24e-1,
6.616800e+0,3.24e-1,
6.616900e+0,3.24e-1,
6.617000e+0,3.24e-1,
6.617100e+0,3.24e-1,
6.617200e+0,3.24e-1,
6.617300e+0,3.24e-1,
6.617400e+0,3.24e-1,
6.617500e+0,3.24e-1,
6.617600e+0,3.24e-1,
6.617700e+0,3.24e-1,
6.617800e+0,3.24e-1,
6.617900e+0,3.24e-1,
6.618000e+0,3.24e-1,
6.618100e+0,3.25e-1,
6.618200e+0,3.25e-1,
6.618300e+0,3.25e-1,
6.618400e+0,3.25e-1,
6.618500e+0,3.25e-1,
6.618600e+0,3.25e-1,
6.618700e+0,3.25e-1,
6.618800e+0,3.25e-1,
6.618900e+0,3.26e-1,
6.619000e+0,3.26e-1,
6.619100e+0,3.26e-1,
6.619200e+0,3.26e-1,
6.619300e+0,3.26e-1,
6.619400e+0,3.26e-1,
6.619500e+0,3.26e-1,
6.619600e+0,3.26e-1,
6.619700e+0,3.26e-1,
6.619800e+0,3.26e-1,
6.619900e+0,3.26e-1,
6.620000e+0,3.26e-1,
6.620100e+0,3.27e-1,
6.620200e+0,3.27e-1,
6.620300e+0,3.26e-1,
6.620400e+0,3.26e-1,
6.620500e+0,3.26e-1,
6.620600e+0,3.26e-1,
6.620700e+0,3.27e-1,
6.620800e+0,3.27e-1,
6.620900e+0,3.28e-1,
6.621000e+0,3.28e-1,
6.621100e+0,3.27e-1,
6.621200e+0,3.27e-1,
6.621300e+0,3.28e-1,
6.621400e+0,3.28e-1,
6.621500e+0,3.28e-1,
6.621600e+0,3.28e-1,
6.621700e+0,3.28e-1,
6.621800e+0,3.28e-1,
6.621900e+0,3.28e-1,
6.622000e+0,3.28e-1,
6.622100e+0,3.28e-1,
6.622200e+0,3.28e-1,
6.622300e+0,3.28e-1,
6.622400e+0,3.28e-1,
6.622500e+0,3.28e-1,
6.622600e+0,3.28e-1,
6.622700e+0,3.29e-1,
6.622800e+0,3.29e-1,
6.622900e+0,3.29e-1,
6.623000e+0,3.29e-1,
6.623100e+0,3.28e-1,
6.623200e+0,3.28e-1,
6.623300e+0,3.29e-1,
6.623400e+0,3.29e-1,
6.623500e+0,3.29e-1,
6.623600e+0,3.29e-1,
6.623700e+0,3.28e-1,
6.623800e+0,3.28e-1,
6.623900e+0,3.30e-1,
6.624000e+0,3.30e-1,
6.624100e+0,3.29e-1,
6.624200e+0,3.29e-1,
6.624300e+0,3.30e-1,
6.624400e+0,3.30e-1,
6.624500e+0,3.30e-1,
6.624600e+0,3.30e-1,
6.624700e+0,3.30e-1,
6.624800e+0,3.30e-1,
6.624900e+0,3.30e-1,
6.625000e+0,3.30e-1,
6.625100e+0,3.31e-1,
6.625200e+0,3.31e-1,
6.625300e+0,3.31e-1,
6.625400e+0,3.31e-1,
6.625500e+0,3.31e-1,
6.625600e+0,3.31e-1,
6.625700e+0,3.31e-1,
6.625800e+0,3.31e-1,
6.625900e+0,3.32e-1,
6.626000e+0,3.32e-1,
6.626100e+0,3.32e-1,
6.626200e+0,3.32e-1,
6.626300e+0,3.32e-1,
6.626400e+0,3.32e-1,
6.626500e+0,3.32e-1,
6.626600e+0,3.32e-1,
6.626700e+0,3.32e-1,
6.626800e+0,3.32e-1,
6.626900e+0,3.33e-1,
6.627000e+0,3.33e-1,
6.627100e+0,3.33e-1,
6.627200e+0,3.33e-1,
6.627300e+0,3.33e-1,
6.627400e+0,3.33e-1,
6.627500e+0,3.33e-1,
6.627600e+0,3.33e-1,
6.627700e+0,3.33e-1,
6.627800e+0,3.33e-1,
6.627900e+0,3.32e-1,
6.628000e+0,3.32e-1,
6.628100e+0,3.33e-1,
6.628200e+0,3.33e-1,
6.628300e+0,3.34e-1,
6.628400e+0,3.34e-1,
6.628500e+0,3.34e-1,
6.628600e+0,3.34e-1,
6.628700e+0,3.34e-1,
6.628800e+0,3.34e-1,
6.628900e+0,3.34e-1,
6.629000e+0,3.34e-1,
6.629100e+0,3.35e-1,
6.629200e+0,3.35e-1,
6.629300e+0,3.35e-1,
6.629400e+0,3.35e-1,
6.629500e+0,3.36e-1,
6.629600e+0,3.36e-1,
6.629700e+0,3.36e-1,
6.629800e+0,3.36e-1,
6.629900e+0,3.36e-1,
6.630000e+0,3.36e-1,
6.630100e+0,3.36e-1,
6.630200e+0,3.36e-1,
6.630300e+0,3.35e-1,
6.630400e+0,3.35e-1,
6.630500e+0,3.36e-1,
6.630600e+0,3.36e-1,
6.630700e+0,3.36e-1,
6.630800e+0,3.36e-1,
6.630900e+0,3.36e-1,
6.631000e+0,3.36e-1,
6.631100e+0,3.36e-1,
6.631200e+0,3.36e-1,
6.631300e+0,3.36e-1,
6.631400e+0,3.36e-1,
6.631500e+0,3.37e-1,
6.631600e+0,3.37e-1,
6.631700e+0,3.37e-1,
6.631800e+0,3.37e-1,
6.631900e+0,3.38e-1,
6.632000e+0,3.38e-1,
6.632100e+0,3.37e-1,
6.632200e+0,3.37e-1,
6.632300e+0,3.38e-1,
6.632400e+0,3.38e-1,
6.632500e+0,3.38e-1,
6.632600e+0,3.38e-1,
6.632700e+0,3.38e-1,
6.632800e+0,3.38e-1,
6.632900e+0,3.38e-1,
6.633000e+0,3.38e-1,
6.633100e+0,3.38e-1,
6.633200e+0,3.38e-1,
6.633300e+0,3.38e-1,
6.633400e+0,3.38e-1,
6.633500e+0,3.39e-1,
6.633600e+0,3.39e-1,
6.633700e+0,3.38e-1,
6.633800e+0,3.38e-1,
6.633900e+0,3.39e-1,
6.634000e+0,3.39e-1,
6.634100e+0,3.39e-1,
6.634200e+0,3.39e-1,
6.634300e+0,3.39e-1,
6.634400e+0,3.39e-1,
6.634500e+0,3.39e-1,
6.634600e+0,3.39e-1,
6.634700e+0,3.39e-1,
6.634800e+0,3.39e-1,
6.634900e+0,3.39e-1,
6.635000e+0,3.39e-1,
6.635100e+0,3.39e-1,
6.635200e+0,3.39e-1,
6.635300e+0,3.40e-1,
6.635400e+0,3.40e-1,
6.635500e+0,3.39e-1,
6.635600e+0,3.39e-1,
6.635700e+0,3.40e-1,
6.635800e+0,3.40e-1,
6.635900e+0,3.40e-1,
6.636000e+0,3.40e-1,
6.636100e+0,3.40e-1,
6.636200e+0,3.40e-1,
6.636300e+0,3.40e-1,
6.636400e+0,3.40e-1,
6.636500e+0,3.40e-1,
6.636600e+0,3.40e-1,
6.636700e+0,3.40e-1,
6.636800e+0,3.40e-1,
6.636900e+0,3.40e-1,
6.637000e+0,3.40e-1,
6.637100e+0,3.40e-1,
6.637200e+0,3.40e-1,
6.637300e+0,3.41e-1,
6.637400e+0,3.41e-1,
6.637500e+0,3.41e-1,
6.637600e+0,3.41e-1,
6.637700e+0,3.41e-1,
6.637800e+0,3.41e-1,
6.637900e+0,3.41e-1,
6.638000e+0,3.41e-1,
6.638100e+0,3.42e-1,
6.638200e+0,3.42e-1,
6.638300e+0,3.42e-1,
6.638400e+0,3.42e-1,
6.638500e+0,3.42e-1,
6.638600e+0,3.42e-1,
6.638700e+0,3.43e-1,
6.638800e+0,3.43e-1,
6.638900e+0,3.42e-1,
6.639000e+0,3.42e-1,
6.639100e+0,3.42e-1,
6.639200e+0,3.42e-1,
6.639300e+0,3.42e-1,
6.639400e+0,3.42e-1,
6.639500e+0,3.43e-1,
6.639600e+0,3.43e-1,
6.639700e+0,3.42e-1,
6.639800e+0,3.42e-1,
6.639900e+0,3.43e-1,
6.640000e+0,3.43e-1,
6.640100e+0,3.43e-1,
6.640200e+0,3.43e-1,
6.640300e+0,3.44e-1,
6.640400e+0,3.44e-1,
6.640500e+0,3.43e-1,
6.640600e+0,3.43e-1,
6.640700e+0,3.44e-1,
6.640800e+0,3.44e-1,
6.640900e+0,3.44e-1,
6.641000e+0,3.44e-1,
6.641100e+0,3.44e-1,
6.641200e+0,3.44e-1,
6.641300e+0,3.44e-1,
6.641400e+0,3.44e-1,
6.641500e+0,3.44e-1,
6.641600e+0,3.44e-1,
6.641700e+0,3.44e-1,
6.641800e+0,3.44e-1,
6.641900e+0,3.44e-1,
6.642000e+0,3.44e-1,
6.642100e+0,3.44e-1,
6.642200e+0,3.44e-1,
6.642300e+0,3.44e-1,
6.642400e+0,3.44e-1,
6.642500e+0,3.45e-1,
6.642600e+0,3.45e-1,
6.642700e+0,3.46e-1,
6.642800e+0,3.46e-1,
6.642900e+0,3.46e-1,
6.643000e+0,3.46e-1,
6.643100e+0,3.45e-1,
6.643200e+0,3.45e-1,
6.643300e+0,3.46e-1,
6.643400e+0,3.46e-1,
6.643500e+0,3.46e-1,
6.643600e+0,3.46e-1,
6.643700e+0,3.46e-1,
6.643800e+0,3.46e-1,
6.643900e+0,3.47e-1,
6.644000e+0,3.47e-1,
6.644100e+0,3.46e-1,
6.644200e+0,3.46e-1,
6.644300e+0,3.46e-1,
6.644400e+0,3.46e-1,
6.644500e+0,3.48e-1,
6.644600e+0,3.48e-1,
6.644700e+0,3.47e-1,
6.644800e+0,3.47e-1,
6.644900e+0,3.48e-1,
6.645000e+0,3.48e-1,
6.645100e+0,3.47e-1,
6.645200e+0,3.47e-1,
6.645300e+0,3.47e-1,
6.645400e+0,3.47e-1,
6.645500e+0,3.48e-1,
6.645600e+0,3.48e-1,
6.645700e+0,3.48e-1,
6.645800e+0,3.48e-1,
6.645900e+0,3.48e-1,
6.646000e+0,3.48e-1,
6.646100e+0,3.48e-1,
6.646200e+0,3.48e-1,
6.646300e+0,3.48e-1,
6.646400e+0,3.48e-1,
6.646500e+0,3.48e-1,
6.646600e+0,3.48e-1,
6.646700e+0,3.48e-1,
6.646800e+0,3.48e-1,
6.646900e+0,3.48e-1,
6.647000e+0,3.48e-1,
6.647100e+0,3.48e-1,
6.647200e+0,3.48e-1,
6.647300e+0,3.48e-1,
6.647400e+0,3.48e-1,
6.647500e+0,3.49e-1,
6.647600e+0,3.49e-1,
6.647700e+0,3.49e-1,
6.647800e+0,3.49e-1,
6.647900e+0,3.48e-1,
6.648000e+0,3.48e-1,
6.648100e+0,3.49e-1,
6.648200e+0,3.49e-1,
6.648300e+0,3.49e-1,
6.648400e+0,3.49e-1,
6.648500e+0,3.50e-1,
6.648600e+0,3.50e-1,
6.648700e+0,3.49e-1,
6.648800e+0,3.49e-1,
6.648900e+0,3.49e-1,
6.649000e+0,3.49e-1,
6.649100e+0,3.51e-1,
6.649200e+0,3.51e-1,
6.649300e+0,3.50e-1,
6.649400e+0,3.50e-1,
6.649500e+0,3.50e-1,
6.649600e+0,3.50e-1,
6.649700e+0,3.50e-1,
6.649800e+0,3.50e-1,
6.649900e+0,3.50e-1,
6.650000e+0,3.50e-1,
6.650100e+0,3.50e-1,
6.650200e+0,3.50e-1,
6.650300e+0,3.51e-1,
6.650400e+0,3.51e-1,
6.650500e+0,3.50e-1,
6.650600e+0,3.50e-1,
6.650700e+0,3.51e-1,
6.650800e+0,3.51e-1,
6.650900e+0,3.51e-1,
6.651000e+0,3.51e-1,
6.651100e+0,3.51e-1,
6.651200e+0,3.51e-1,
6.651300e+0,3.51e-1,
6.651400e+0,3.51e-1,
6.651500e+0,3.51e-1,
6.651600e+0,3.51e-1,
6.651700e+0,3.51e-1,
6.651800e+0,3.51e-1,
6.651900e+0,3.52e-1,
6.652000e+0,3.52e-1,
6.652100e+0,3.51e-1,
6.652200e+0,3.51e-1,
6.652300e+0,3.51e-1,
6.652400e+0,3.51e-1,
6.652500e+0,3.52e-1,
6.652600e+0,3.52e-1,
6.652700e+0,3.52e-1,
6.652800e+0,3.52e-1,
6.652900e+0,3.52e-1,
6.653000e+0,3.52e-1,
6.653100e+0,3.52e-1,
6.653200e+0,3.52e-1,
6.653300e+0,3.52e-1,
6.653400e+0,3.52e-1,
6.653500e+0,3.52e-1,
6.653600e+0,3.52e-1,
6.653700e+0,3.52e-1,
6.653800e+0,3.52e-1,
6.653900e+0,3.52e-1,
6.654000e+0,3.52e-1,
6.654100e+0,3.52e-1,
6.654200e+0,3.52e-1,
6.654300e+0,3.52e-1,
6.654400e+0,3.52e-1,
6.654500e+0,3.52e-1,
6.654600e+0,3.52e-1,
6.654700e+0,3.52e-1,
6.654800e+0,3.52e-1,
6.654900e+0,3.52e-1,
6.655000e+0,3.52e-1,
6.655100e+0,3.52e-1,
6.655200e+0,3.52e-1,
6.655300e+0,3.52e-1,
6.655400e+0,3.52e-1,
6.655500e+0,3.53e-1,
6.655600e+0,3.53e-1,
6.655700e+0,3.53e-1,
6.655800e+0,3.53e-1,
6.655900e+0,3.54e-1,
6.656000e+0,3.54e-1,
6.656100e+0,3.52e-1,
6.656200e+0,3.52e-1,
6.656300e+0,3.53e-1,
6.656400e+0,3.53e-1,
6.656500e+0,3.53e-1,
6.656600e+0,3.53e-1,
6.656700e+0,3.53e-1,
6.656800e+0,3.53e-1,
6.656900e+0,3.54e-1,
6.657000e+0,3.54e-1,
6.657100e+0,3.53e-1,
6.657200e+0,3.53e-1,
6.657300e+0,3.54e-1,
6.657400e+0,3.54e-1,
6.657500e+0,3.54e-1,
6.657600e+0,3.54e-1,
6.657700e+0,3.54e-1,
6.657800e+0,3.54e-1,
6.657900e+0,3.53e-1,
6.658000e+0,3.53e-1,
6.658100e+0,3.54e-1,
6.658200e+0,3.54e-1,
6.658300e+0,3.54e-1,
6.658400e+0,3.54e-1,
6.658500e+0,3.54e-1,
6.658600e+0,3.54e-1,
6.658700e+0,3.54e-1,
6.658800e+0,3.54e-1,
6.658900e+0,3.54e-1,
6.659000e+0,3.54e-1,
6.659100e+0,3.55e-1,
6.659200e+0,3.55e-1,
6.659300e+0,3.54e-1,
6.659400e+0,3.54e-1,
6.659500e+0,3.55e-1,
6.659600e+0,3.55e-1,
6.659700e+0,3.55e-1,
6.659800e+0,3.55e-1,
6.659900e+0,3.55e-1,
6.660000e+0,3.55e-1,
6.660100e+0,3.55e-1,
6.660200e+0,3.55e-1,
6.660300e+0,3.55e-1,
6.660400e+0,3.55e-1,
6.660500e+0,3.56e-1,
6.660600e+0,3.56e-1,
6.660700e+0,3.55e-1,
6.660800e+0,3.55e-1,
6.660900e+0,3.55e-1,
6.661000e+0,3.55e-1,
6.661100e+0,3.56e-1,
6.661200e+0,3.56e-1,
6.661300e+0,3.56e-1,
6.661400e+0,3.56e-1,
6.661500e+0,3.56e-1,
6.661600e+0,3.56e-1,
6.661700e+0,3.56e-1,
6.661800e+0,3.56e-1,
6.661900e+0,3.56e-1,
6.662000e+0,3.56e-1,
6.662100e+0,3.56e-1,
6.662200e+0,3.56e-1,
6.662300e+0,3.56e-1,
6.662400e+0,3.56e-1,
6.662500e+0,3.56e-1,
6.662600e+0,3.56e-1,
6.662700e+0,3.56e-1,
6.662800e+0,3.56e-1,
6.662900e+0,3.56e-1,
6.663000e+0,3.56e-1,
6.663100e+0,3.56e-1,
6.663200e+0,3.56e-1,
6.663300e+0,3.56e-1,
6.663400e+0,3.56e-1,
6.663500e+0,3.56e-1,
6.663600e+0,3.56e-1,
6.663700e+0,3.56e-1,
6.663800e+0,3.56e-1,
6.663900e+0,3.56e-1,
6.664000e+0,3.56e-1,
6.664100e+0,3.56e-1,
6.664200e+0,3.56e-1,
6.664300e+0,3.56e-1,
6.664400e+0,3.56e-1,
6.664500e+0,3.56e-1,
6.664600e+0,3.56e-1,
6.664700e+0,3.56e-1,
6.664800e+0,3.56e-1,
6.664900e+0,3.56e-1,
6.665000e+0,3.56e-1,
6.665100e+0,3.56e-1,
6.665200e+0,3.56e-1,
6.665300e+0,3.56e-1,
6.665400e+0,3.56e-1,
6.665500e+0,3.56e-1,
6.665600e+0,3.56e-1,
6.665700e+0,3.56e-1,
6.665800e+0,3.56e-1,
6.665900e+0,3.57e-1,
6.666000e+0,3.57e-1,
6.666100e+0,3.56e-1,
6.666200e+0,3.56e-1,
6.666300e+0,3.56e-1,
6.666400e+0,3.56e-1,
6.666500e+0,3.57e-1,
6.666600e+0,3.57e-1,
6.666700e+0,3.56e-1,
6.666800e+0,3.56e-1,
6.666900e+0,3.56e-1,
6.667000e+0,3.56e-1,
6.667100e+0,3.56e-1,
6.667200e+0,3.56e-1,
6.667300e+0,3.56e-1,
6.667400e+0,3.56e-1,
6.667500e+0,3.56e-1,
6.667600e+0,3.56e-1,
6.667700e+0,3.57e-1,
6.667800e+0,3.57e-1,
6.667900e+0,3.57e-1,
6.668000e+0,3.57e-1,
6.668100e+0,3.56e-1,
6.668200e+0,3.56e-1,
6.668300e+0,3.57e-1,
6.668400e+0,3.57e-1,
6.668500e+0,3.57e-1,
6.668600e+0,3.57e-1,
6.668700e+0,3.57e-1,
6.668800e+0,3.57e-1,
6.668900e+0,3.57e-1,
6.669000e+0,3.57e-1,
6.669100e+0,3.56e-1,
6.669200e+0,3.56e-1,
6.669300e+0,3.56e-1,
6.669400e+0,3.56e-1,
6.669500e+0,3.57e-1,
6.669600e+0,3.57e-1,
6.669700e+0,3.57e-1,
6.669800e+0,3.57e-1,
6.669900e+0,3.56e-1,
6.670000e+0,3.56e-1,
6.670100e+0,3.57e-1,
6.670200e+0,3.57e-1,
6.670300e+0,3.57e-1,
6.670400e+0,3.57e-1,
6.670500e+0,3.57e-1,
6.670600e+0,3.57e-1,
6.670700e+0,3.57e-1,
6.670800e+0,3.57e-1,
6.670900e+0,3.57e-1,
6.671000e+0,3.57e-1,
6.671100e+0,3.57e-1,
6.671200e+0,3.57e-1,
6.671300e+0,3.58e-1,
6.671400e+0,3.58e-1,
6.671500e+0,3.58e-1,
6.671600e+0,3.58e-1,
6.671700e+0,3.57e-1,
6.671800e+0,3.57e-1,
6.671900e+0,3.57e-1,
6.672000e+0,3.57e-1,
6.672100e+0,3.57e-1,
6.672200e+0,3.57e-1,
6.672300e+0,3.57e-1,
6.672400e+0,3.57e-1,
6.672500e+0,3.57e-1,
6.672600e+0,3.57e-1,
6.672700e+0,3.57e-1,
6.672800e+0,3.57e-1,
6.672900e+0,3.56e-1,
6.673000e+0,3.56e-1,
6.673100e+0,3.57e-1,
6.673200e+0,3.57e-1,
6.673300e+0,3.57e-1,
6.673400e+0,3.57e-1,
6.673500e+0,3.56e-1,
6.673600e+0,3.56e-1,
6.673700e+0,3.57e-1,
6.673800e+0,3.57e-1,
6.673900e+0,3.58e-1,
6.674000e+0,3.58e-1,
6.674100e+0,3.57e-1,
6.674200e+0,3.57e-1,
6.674300e+0,3.57e-1,
6.674400e+0,3.57e-1,
6.674500e+0,3.57e-1,
6.674600e+0,3.57e-1,
6.674700e+0,3.56e-1,
6.674800e+0,3.56e-1,
6.674900e+0,3.57e-1,
6.675000e+0,3.57e-1,
6.675100e+0,3.58e-1,
6.675200e+0,3.58e-1,
6.675300e+0,3.58e-1,
6.675400e+0,3.58e-1,
6.675500e+0,3.58e-1,
6.675600e+0,3.58e-1,
6.675700e+0,3.57e-1,
6.675800e+0,3.57e-1,
6.675900e+0,3.57e-1,
6.676000e+0,3.57e-1,
6.676100e+0,3.57e-1,
6.676200e+0,3.57e-1,
6.676300e+0,3.57e-1,
6.676400e+0,3.57e-1,
6.676500e+0,3.57e-1,
6.676600e+0,3.57e-1,
6.676700e+0,3.57e-1,
6.676800e+0,3.57e-1,
6.676900e+0,3.57e-1,
6.677000e+0,3.57e-1,
6.677100e+0,3.57e-1,
6.677200e+0,3.57e-1,
6.677300e+0,3.58e-1,
6.677400e+0,3.58e-1,
6.677500e+0,3.57e-1,
6.677600e+0,3.57e-1,
6.677700e+0,3.57e-1,
6.677800e+0,3.57e-1,
6.677900e+0,3.57e-1,
6.678000e+0,3.57e-1,
6.678100e+0,3.58e-1,
6.678200e+0,3.58e-1,
6.678300e+0,3.57e-1,
6.678400e+0,3.57e-1,
6.678500e+0,3.57e-1,
6.678600e+0,3.57e-1,
6.678700e+0,3.57e-1,
6.678800e+0,3.57e-1,
6.678900e+0,3.56e-1,
6.679000e+0,3.56e-1,
6.679100e+0,3.57e-1,
6.679200e+0,3.57e-1,
6.679300e+0,3.57e-1,
6.679400e+0,3.57e-1,
6.679500e+0,3.56e-1,
6.679600e+0,3.56e-1,
6.679700e+0,3.57e-1,
6.679800e+0,3.57e-1,
6.679900e+0,3.56e-1,
6.680000e+0,3.56e-1,
6.680100e+0,3.57e-1,
6.680200e+0,3.57e-1,
6.680300e+0,3.57e-1,
6.680400e+0,3.57e-1,
6.680500e+0,3.56e-1,
6.680600e+0,3.56e-1,
6.680700e+0,3.57e-1,
6.680800e+0,3.57e-1,
6.680900e+0,3.57e-1,
6.681000e+0,3.57e-1,
6.681100e+0,3.57e-1,
6.681200e+0,3.57e-1,
6.681300e+0,3.56e-1,
6.681400e+0,3.56e-1,
6.681500e+0,3.56e-1,
6.681600e+0,3.56e-1,
6.681700e+0,3.56e-1,
6.681800e+0,3.56e-1,
6.681900e+0,3.56e-1,
6.682000e+0,3.56e-1,
6.682100e+0,3.56e-1,
6.682200e+0,3.56e-1,
6.682300e+0,3.56e-1,
6.682400e+0,3.56e-1,
6.682500e+0,3.57e-1,
6.682600e+0,3.57e-1,
6.682700e+0,3.56e-1,
6.682800e+0,3.56e-1,
6.682900e+0,3.56e-1,
6.683000e+0,3.56e-1,
6.683100e+0,3.56e-1,
6.683200e+0,3.56e-1,
6.683300e+0,3.56e-1,
6.683400e+0,3.56e-1,
6.683500e+0,3.56e-1,
6.683600e+0,3.56e-1,
6.683700e+0,3.56e-1,
6.683800e+0,3.56e-1,
6.683900e+0,3.56e-1,
6.684000e+0,3.56e-1,
6.684100e+0,3.56e-1,
6.684200e+0,3.56e-1,
6.684300e+0,3.56e-1,
6.684400e+0,3.56e-1,
6.684500e+0,3.56e-1,
6.684600e+0,3.56e-1,
6.684700e+0,3.56e-1,
6.684800e+0,3.56e-1,
6.684900e+0,3.56e-1,
6.685000e+0,3.56e-1,
6.685100e+0,3.56e-1,
6.685200e+0,3.56e-1,
6.685300e+0,3.56e-1,
6.685400e+0,3.56e-1,
6.685500e+0,3.55e-1,
6.685600e+0,3.55e-1,
6.685700e+0,3.56e-1,
6.685800e+0,3.56e-1,
6.685900e+0,3.55e-1,
6.686000e+0,3.55e-1,
6.686100e+0,3.56e-1,
6.686200e+0,3.56e-1,
6.686300e+0,3.56e-1,
6.686400e+0,3.56e-1,
6.686500e+0,3.56e-1,
6.686600e+0,3.56e-1,
6.686700e+0,3.55e-1,
6.686800e+0,3.55e-1,
6.686900e+0,3.56e-1,
6.687000e+0,3.56e-1,
6.687100e+0,3.55e-1,
6.687200e+0,3.55e-1,
6.687300e+0,3.55e-1,
6.687400e+0,3.55e-1,
6.687500e+0,3.55e-1,
6.687600e+0,3.55e-1,
6.687700e+0,3.55e-1,
6.687800e+0,3.55e-1,
6.687900e+0,3.55e-1,
6.688000e+0,3.55e-1,
6.688100e+0,3.55e-1,
6.688200e+0,3.55e-1,
6.688300e+0,3.55e-1,
6.688400e+0,3.55e-1,
6.688500e+0,3.55e-1,
6.688600e+0,3.55e-1,
6.688700e+0,3.55e-1,
6.688800e+0,3.55e-1,
6.688900e+0,3.55e-1,
6.689000e+0,3.55e-1,
6.689100e+0,3.55e-1,
6.689200e+0,3.55e-1,
6.689300e+0,3.55e-1,
6.689400e+0,3.55e-1,
6.689500e+0,3.54e-1,
6.689600e+0,3.54e-1,
6.689700e+0,3.55e-1,
6.689800e+0,3.55e-1,
6.689900e+0,3.54e-1,
6.690000e+0,3.54e-1,
6.690100e+0,3.54e-1,
6.690200e+0,3.54e-1,
6.690300e+0,3.54e-1,
6.690400e+0,3.54e-1,
6.690500e+0,3.54e-1,
6.690600e+0,3.54e-1,
6.690700e+0,3.54e-1,
6.690800e+0,3.54e-1,
6.690900e+0,3.53e-1,
6.691000e+0,3.53e-1,
6.691100e+0,3.54e-1,
6.691200e+0,3.54e-1,
6.691300e+0,3.53e-1,
6.691400e+0,3.53e-1,
6.691500e+0,3.53e-1,
6.691600e+0,3.53e-1,
6.691700e+0,3.53e-1,
6.691800e+0,3.53e-1,
6.691900e+0,3.53e-1,
6.692000e+0,3.53e-1,
6.692100e+0,3.53e-1,
6.692200e+0,3.53e-1,
6.692300e+0,3.53e-1,
6.692400e+0,3.53e-1,
6.692500e+0,3.52e-1,
6.692600e+0,3.52e-1,
6.692700e+0,3.53e-1,
6.692800e+0,3.53e-1,
6.692900e+0,3.52e-1,
6.693000e+0,3.52e-1,
6.693100e+0,3.52e-1,
6.693200e+0,3.52e-1,
6.693300e+0,3.52e-1,
6.693400e+0,3.52e-1,
6.693500e+0,3.52e-1,
6.693600e+0,3.52e-1,
6.693700e+0,3.52e-1,
6.693800e+0,3.52e-1,
6.693900e+0,3.52e-1,
6.694000e+0,3.52e-1,
6.694100e+0,3.52e-1,
6.694200e+0,3.52e-1,
6.694300e+0,3.52e-1,
6.694400e+0,3.52e-1,
6.694500e+0,3.51e-1,
6.694600e+0,3.51e-1,
6.694700e+0,3.51e-1,
6.694800e+0,3.51e-1,
6.694900e+0,3.51e-1,
6.695000e+0,3.51e-1,
6.695100e+0,3.52e-1,
6.695200e+0,3.52e-1,
6.695300e+0,3.52e-1,
6.695400e+0,3.52e-1,
6.695500e+0,3.51e-1,
6.695600e+0,3.51e-1,
6.695700e+0,3.51e-1,
6.695800e+0,3.51e-1,
6.695900e+0,3.50e-1,
6.696000e+0,3.50e-1,
6.696100e+0,3.51e-1,
6.696200e+0,3.51e-1,
6.696300e+0,3.50e-1,
6.696400e+0,3.50e-1,
6.696500e+0,3.50e-1,
6.696600e+0,3.50e-1,
6.696700e+0,3.49e-1,
6.696800e+0,3.49e-1,
6.696900e+0,3.49e-1,
6.697000e+0,3.49e-1,
6.697100e+0,3.49e-1,
6.697200e+0,3.49e-1,
6.697300e+0,3.49e-1,
6.697400e+0,3.49e-1,
6.697500e+0,3.49e-1,
6.697600e+0,3.49e-1,
6.697700e+0,3.48e-1,
6.697800e+0,3.48e-1,
6.697900e+0,3.48e-1,
6.698000e+0,3.48e-1,
6.698100e+0,3.48e-1,
6.698200e+0,3.48e-1,
6.698300e+0,3.48e-1,
6.698400e+0,3.48e-1,
6.698500e+0,3.48e-1,
6.698600e+0,3.48e-1,
6.698700e+0,3.48e-1,
6.698800e+0,3.48e-1,
6.698900e+0,3.48e-1,
6.699000e+0,3.48e-1,
6.699100e+0,3.48e-1,
6.699200e+0,3.48e-1,
6.699300e+0,3.48e-1,
6.699400e+0,3.48e-1,
6.699500e+0,3.47e-1,
6.699600e+0,3.47e-1,
6.699700e+0,3.48e-1,
6.699800e+0,3.48e-1,
6.699900e+0,3.48e-1,
6.700000e+0,3.48e-1,
6.700100e+0,3.47e-1,
6.700200e+0,3.47e-1,
6.700300e+0,3.47e-1,
6.700400e+0,3.47e-1,
6.700500e+0,3.47e-1,
6.700600e+0,3.47e-1,
6.700700e+0,3.48e-1,
6.700800e+0,3.48e-1,
6.700900e+0,3.46e-1,
6.701000e+0,3.46e-1,
6.701100e+0,3.47e-1,
6.701200e+0,3.47e-1,
6.701300e+0,3.46e-1,
6.701400e+0,3.46e-1,
6.701500e+0,3.46e-1,
6.701600e+0,3.46e-1,
6.701700e+0,3.46e-1,
6.701800e+0,3.46e-1,
6.701900e+0,3.45e-1,
6.702000e+0,3.45e-1,
6.702100e+0,3.46e-1,
6.702200e+0,3.46e-1,
6.702300e+0,3.46e-1,
6.702400e+0,3.46e-1,
6.702500e+0,3.45e-1,
6.702600e+0,3.45e-1,
6.702700e+0,3.45e-1,
6.702800e+0,3.45e-1,
6.702900e+0,3.46e-1,
6.703000e+0,3.46e-1,
6.703100e+0,3.45e-1,
6.703200e+0,3.45e-1,
6.703300e+0,3.44e-1,
6.703400e+0,3.44e-1,
6.703500e+0,3.44e-1,
6.703600e+0,3.44e-1,
6.703700e+0,3.44e-1,
6.703800e+0,3.44e-1,
6.703900e+0,3.44e-1,
6.704000e+0,3.44e-1,
6.704100e+0,3.44e-1,
6.704200e+0,3.44e-1,
6.704300e+0,3.44e-1,
6.704400e+0,3.44e-1,
6.704500e+0,3.44e-1,
6.704600e+0,3.44e-1,
6.704700e+0,3.44e-1,
6.704800e+0,3.44e-1,
6.704900e+0,3.44e-1,
6.705000e+0,3.44e-1,
6.705100e+0,3.43e-1,
6.705200e+0,3.43e-1,
6.705300e+0,3.43e-1,
6.705400e+0,3.43e-1,
6.705500e+0,3.43e-1,
6.705600e+0,3.43e-1,
6.705700e+0,3.43e-1,
6.705800e+0,3.43e-1,
6.705900e+0,3.43e-1,
6.706000e+0,3.43e-1,
6.706100e+0,3.43e-1,
6.706200e+0,3.43e-1,
6.706300e+0,3.42e-1,
6.706400e+0,3.42e-1,
6.706500e+0,3.41e-1,
6.706600e+0,3.41e-1,
6.706700e+0,3.41e-1,
6.706800e+0,3.41e-1,
6.706900e+0,3.41e-1,
6.707000e+0,3.41e-1,
6.707100e+0,3.41e-1,
6.707200e+0,3.41e-1,
6.707300e+0,3.41e-1,
6.707400e+0,3.41e-1,
6.707500e+0,3.41e-1,
6.707600e+0,3.41e-1,
6.707700e+0,3.41e-1,
6.707800e+0,3.41e-1,
6.707900e+0,3.40e-1,
6.708000e+0,3.40e-1,
6.708100e+0,3.40e-1,
6.708200e+0,3.40e-1,
6.708300e+0,3.40e-1,
6.708400e+0,3.40e-1,
6.708500e+0,3.40e-1,
6.708600e+0,3.40e-1,
6.708700e+0,3.39e-1,
6.708800e+0,3.39e-1,
6.708900e+0,3.40e-1,
6.709000e+0,3.40e-1,
6.709100e+0,3.38e-1,
6.709200e+0,3.38e-1,
6.709300e+0,3.38e-1,
6.709400e+0,3.38e-1,
6.709500e+0,3.37e-1,
6.709600e+0,3.37e-1,
6.709700e+0,3.37e-1,
6.709800e+0,3.37e-1,
6.709900e+0,3.36e-1,
6.710000e+0,3.36e-1,
6.710100e+0,3.36e-1,
6.710200e+0,3.36e-1,
6.710300e+0,3.36e-1,
6.710400e+0,3.36e-1,
6.710500e+0,3.36e-1,
6.710600e+0,3.36e-1,
6.710700e+0,3.36e-1,
6.710800e+0,3.36e-1,
6.710900e+0,3.36e-1,
6.711000e+0,3.36e-1,
6.711100e+0,3.36e-1,
6.711200e+0,3.36e-1,
6.711300e+0,3.35e-1,
6.711400e+0,3.35e-1,
6.711500e+0,3.35e-1,
6.711600e+0,3.35e-1,
6.711700e+0,3.35e-1,
6.711800e+0,3.35e-1,
6.711900e+0,3.33e-1,
6.712000e+0,3.33e-1,
6.712100e+0,3.34e-1,
6.712200e+0,3.34e-1,
6.712300e+0,3.33e-1,
6.712400e+0,3.33e-1,
6.712500e+0,3.33e-1,
6.712600e+0,3.33e-1,
6.712700e+0,3.33e-1,
6.712800e+0,3.33e-1,
6.712900e+0,3.33e-1,
6.713000e+0,3.33e-1,
6.713100e+0,3.33e-1,
6.713200e+0,3.33e-1,
6.713300e+0,3.32e-1,
6.713400e+0,3.32e-1,
6.713500e+0,3.32e-1,
6.713600e+0,3.32e-1,
6.713700e+0,3.32e-1,
6.713800e+0,3.32e-1,
6.713900e+0,3.32e-1,
6.714000e+0,3.32e-1,
6.714100e+0,3.32e-1,
6.714200e+0,3.32e-1,
6.714300e+0,3.32e-1,
6.714400e+0,3.32e-1,
6.714500e+0,3.31e-1,
6.714600e+0,3.31e-1,
6.714700e+0,3.30e-1,
6.714800e+0,3.30e-1,
6.714900e+0,3.30e-1,
6.715000e+0,3.30e-1,
6.715100e+0,3.29e-1,
6.715200e+0,3.29e-1,
6.715300e+0,3.30e-1,
6.715400e+0,3.30e-1,
6.715500e+0,3.29e-1,
6.715600e+0,3.29e-1,
6.715700e+0,3.29e-1,
6.715800e+0,3.29e-1,
6.715900e+0,3.28e-1,
6.716000e+0,3.28e-1,
6.716100e+0,3.28e-1,
6.716200e+0,3.28e-1,
6.716300e+0,3.28e-1,
6.716400e+0,3.28e-1,
6.716500e+0,3.28e-1,
6.716600e+0,3.28e-1,
6.716700e+0,3.28e-1,
6.716800e+0,3.28e-1,
6.716900e+0,3.28e-1,
6.717000e+0,3.28e-1,
6.717100e+0,3.27e-1,
6.717200e+0,3.27e-1,
6.717300e+0,3.28e-1,
6.717400e+0,3.28e-1,
6.717500e+0,3.27e-1,
6.717600e+0,3.27e-1,
6.717700e+0,3.27e-1,
6.717800e+0,3.27e-1,
6.717900e+0,3.27e-1,
6.718000e+0,3.27e-1,
6.718100e+0,3.26e-1,
6.718200e+0,3.26e-1,
6.718300e+0,3.26e-1,
6.718400e+0,3.26e-1,
6.718500e+0,3.26e-1,
6.718600e+0,3.26e-1,
6.718700e+0,3.25e-1,
6.718800e+0,3.25e-1,
6.718900e+0,3.25e-1,
6.719000e+0,3.25e-1,
6.719100e+0,3.24e-1,
6.719200e+0,3.24e-1,
6.719300e+0,3.24e-1,
6.719400e+0,3.24e-1,
6.719500e+0,3.25e-1,
6.719600e+0,3.25e-1,
6.719700e+0,3.24e-1,
6.719800e+0,3.24e-1,
6.719900e+0,3.24e-1,
6.720000e+0,3.24e-1,
6.720100e+0,3.23e-1,
6.720200e+0,3.23e-1,
6.720300e+0,3.23e-1,
6.720400e+0,3.23e-1,
6.720500e+0,3.23e-1,
6.720600e+0,3.23e-1,
6.720700e+0,3.23e-1,
6.720800e+0,3.23e-1,
6.720900e+0,3.22e-1,
6.721000e+0,3.22e-1,
6.721100e+0,3.22e-1,
6.721200e+0,3.22e-1,
6.721300e+0,3.22e-1,
6.721400e+0,3.22e-1,
6.721500e+0,3.21e-1,
6.721600e+0,3.21e-1,
6.721700e+0,3.21e-1,
6.721800e+0,3.21e-1,
6.721900e+0,3.20e-1,
6.722000e+0,3.20e-1,
6.722100e+0,3.20e-1,
6.722200e+0,3.20e-1,
6.722300e+0,3.20e-1,
6.722400e+0,3.20e-1,
6.722500e+0,3.20e-1,
6.722600e+0,3.20e-1,
6.722700e+0,3.20e-1,
6.722800e+0,3.20e-1,
6.722900e+0,3.19e-1,
6.723000e+0,3.19e-1,
6.723100e+0,3.19e-1,
6.723200e+0,3.19e-1,
6.723300e+0,3.19e-1,
6.723400e+0,3.19e-1,
6.723500e+0,3.18e-1,
6.723600e+0,3.18e-1,
6.723700e+0,3.18e-1,
6.723800e+0,3.18e-1,
6.723900e+0,3.17e-1,
6.724000e+0,3.17e-1,
6.724100e+0,3.17e-1,
6.724200e+0,3.17e-1,
6.724300e+0,3.17e-1,
6.724400e+0,3.17e-1,
6.724500e+0,3.16e-1,
6.724600e+0,3.16e-1,
6.724700e+0,3.17e-1,
6.724800e+0,3.17e-1,
6.724900e+0,3.17e-1,
6.725000e+0,3.17e-1,
6.725100e+0,3.16e-1,
6.725200e+0,3.16e-1,
6.725300e+0,3.16e-1,
6.725400e+0,3.16e-1,
6.725500e+0,3.15e-1,
6.725600e+0,3.15e-1,
6.725700e+0,3.14e-1,
6.725800e+0,3.14e-1,
6.725900e+0,3.13e-1,
6.726000e+0,3.13e-1,
6.726100e+0,3.13e-1,
6.726200e+0,3.13e-1,
6.726300e+0,3.12e-1,
6.726400e+0,3.12e-1,
6.726500e+0,3.12e-1,
6.726600e+0,3.12e-1,
6.726700e+0,3.12e-1,
6.726800e+0,3.12e-1,
6.726900e+0,3.12e-1,
6.727000e+0,3.12e-1,
6.727100e+0,3.11e-1,
6.727200e+0,3.11e-1,
6.727300e+0,3.09e-1,
6.727400e+0,3.09e-1,
6.727500e+0,3.10e-1,
6.727600e+0,3.10e-1,
6.727700e+0,3.11e-1,
6.727800e+0,3.11e-1,
6.727900e+0,3.09e-1,
6.728000e+0,3.09e-1,
6.728100e+0,3.09e-1,
6.728200e+0,3.09e-1,
6.728300e+0,3.08e-1,
6.728400e+0,3.08e-1,
6.728500e+0,3.08e-1,
6.728600e+0,3.08e-1,
6.728700e+0,3.08e-1,
6.728800e+0,3.08e-1,
6.728900e+0,3.08e-1,
6.729000e+0,3.08e-1,
6.729100e+0,3.07e-1,
6.729200e+0,3.07e-1,
6.729300e+0,3.07e-1,
6.729400e+0,3.07e-1,
6.729500e+0,3.06e-1,
6.729600e+0,3.06e-1,
6.729700e+0,3.05e-1,
6.729800e+0,3.05e-1,
6.729900e+0,3.06e-1,
6.730000e+0,3.06e-1,
6.730100e+0,3.05e-1,
6.730200e+0,3.05e-1,
6.730300e+0,3.04e-1,
6.730400e+0,3.04e-1,
6.730500e+0,3.04e-1,
6.730600e+0,3.04e-1,
6.730700e+0,3.04e-1,
6.730800e+0,3.04e-1,
6.730900e+0,3.04e-1,
6.731000e+0,3.04e-1,
6.731100e+0,3.03e-1,
6.731200e+0,3.03e-1,
6.731300e+0,3.03e-1,
6.731400e+0,3.03e-1,
6.731500e+0,3.03e-1,
6.731600e+0,3.03e-1,
6.731700e+0,3.01e-1,
6.731800e+0,3.01e-1,
6.731900e+0,3.01e-1,
6.732000e+0,3.01e-1,
6.732100e+0,3.01e-1,
6.732200e+0,3.01e-1,
6.732300e+0,3.01e-1,
6.732400e+0,3.01e-1,
6.732500e+0,3.00e-1,
6.732600e+0,3.00e-1,
6.732700e+0,3.00e-1,
6.732800e+0,3.00e-1,
6.732900e+0,3.00e-1,
6.733000e+0,3.00e-1,
6.733100e+0,3.00e-1,
6.733200e+0,3.00e-1,
6.733300e+0,2.99e-1,
6.733400e+0,2.99e-1,
6.733500e+0,3.00e-1,
6.733600e+0,3.00e-1,
6.733700e+0,2.98e-1,
6.733800e+0,2.98e-1,
6.733900e+0,2.99e-1,
6.734000e+0,2.99e-1,
6.734100e+0,2.98e-1,
6.734200e+0,2.98e-1,
6.734300e+0,2.97e-1,
6.734400e+0,2.97e-1,
6.734500e+0,2.97e-1,
6.734600e+0,2.97e-1,
6.734700e+0,2.97e-1,
6.734800e+0,2.97e-1,
6.734900e+0,2.97e-1,
6.735000e+0,2.97e-1,
6.735100e+0,2.97e-1,
6.735200e+0,2.97e-1,
6.735300e+0,2.96e-1,
6.735400e+0,2.96e-1,
6.735500e+0,2.96e-1,
6.735600e+0,2.96e-1,
6.735700e+0,2.95e-1,
6.735800e+0,2.95e-1,
6.735900e+0,2.96e-1,
6.736000e+0,2.96e-1,
6.736100e+0,2.95e-1,
6.736200e+0,2.95e-1,
6.736300e+0,2.95e-1,
6.736400e+0,2.95e-1,
6.736500e+0,2.94e-1,
6.736600e+0,2.94e-1,
6.736700e+0,2.93e-1,
6.736800e+0,2.93e-1,
6.736900e+0,2.94e-1,
6.737000e+0,2.94e-1,
6.737100e+0,2.93e-1,
6.737200e+0,2.93e-1,
6.737300e+0,2.92e-1,
6.737400e+0,2.92e-1,
6.737500e+0,2.92e-1,
6.737600e+0,2.92e-1,
6.737700e+0,2.92e-1,
6.737800e+0,2.92e-1,
6.737900e+0,2.91e-1,
6.738000e+0,2.91e-1,
6.738100e+0,2.92e-1,
6.738200e+0,2.92e-1,
6.738300e+0,2.91e-1,
6.738400e+0,2.91e-1,
6.738500e+0,2.91e-1,
6.738600e+0,2.91e-1,
6.738700e+0,2.90e-1,
6.738800e+0,2.90e-1,
6.738900e+0,2.90e-1,
6.739000e+0,2.90e-1,
6.739100e+0,2.89e-1,
6.739200e+0,2.89e-1,
6.739300e+0,2.88e-1,
6.739400e+0,2.88e-1,
6.739500e+0,2.88e-1,
6.739600e+0,2.88e-1,
6.739700e+0,2.88e-1,
6.739800e+0,2.88e-1,
6.739900e+0,2.88e-1,
6.740000e+0,2.88e-1,
6.740100e+0,2.87e-1,
6.740200e+0,2.87e-1,
6.740300e+0,2.87e-1,
6.740400e+0,2.87e-1,
6.740500e+0,2.87e-1,
6.740600e+0,2.87e-1,
6.740700e+0,2.86e-1,
6.740800e+0,2.86e-1,
6.740900e+0,2.86e-1,
6.741000e+0,2.86e-1,
6.741100e+0,2.85e-1,
6.741200e+0,2.85e-1,
6.741300e+0,2.84e-1,
6.741400e+0,2.84e-1,
6.741500e+0,2.85e-1,
6.741600e+0,2.85e-1,
6.741700e+0,2.84e-1,
6.741800e+0,2.84e-1,
6.741900e+0,2.84e-1,
6.742000e+0,2.84e-1,
6.742100e+0,2.82e-1,
6.742200e+0,2.82e-1,
6.742300e+0,2.82e-1,
6.742400e+0,2.82e-1,
6.742500e+0,2.81e-1,
6.742600e+0,2.81e-1,
6.742700e+0,2.81e-1,
6.742800e+0,2.81e-1,
6.742900e+0,2.80e-1,
6.743000e+0,2.80e-1,
6.743100e+0,2.80e-1,
6.743200e+0,2.80e-1,
6.743300e+0,2.80e-1,
6.743400e+0,2.80e-1,
6.743500e+0,2.80e-1,
6.743600e+0,2.80e-1,
6.743700e+0,2.79e-1,
6.743800e+0,2.79e-1,
6.743900e+0,2.78e-1,
6.744000e+0,2.78e-1,
6.744100e+0,2.77e-1,
6.744200e+0,2.77e-1,
6.744300e+0,2.77e-1,
6.744400e+0,2.77e-1,
6.744500e+0,2.77e-1,
6.744600e+0,2.77e-1,
6.744700e+0,2.76e-1,
6.744800e+0,2.76e-1,
6.744900e+0,2.76e-1,
6.745000e+0,2.76e-1,
6.745100e+0,2.76e-1,
6.745200e+0,2.76e-1,
6.745300e+0,2.75e-1,
6.745400e+0,2.75e-1,
6.745500e+0,2.75e-1,
6.745600e+0,2.75e-1,
6.745700e+0,2.74e-1,
6.745800e+0,2.74e-1,
6.745900e+0,2.73e-1,
6.746000e+0,2.73e-1,
6.746100e+0,2.73e-1,
6.746200e+0,2.73e-1,
6.746300e+0,2.73e-1,
6.746400e+0,2.73e-1,
6.746500e+0,2.72e-1,
6.746600e+0,2.72e-1,
6.746700e+0,2.72e-1,
6.746800e+0,2.72e-1,
6.746900e+0,2.72e-1,
6.747000e+0,2.72e-1,
6.747100e+0,2.72e-1,
6.747200e+0,2.72e-1,
6.747300e+0,2.71e-1,
6.747400e+0,2.71e-1,
6.747500e+0,2.71e-1,
6.747600e+0,2.71e-1,
6.747700e+0,2.70e-1,
6.747800e+0,2.70e-1,
6.747900e+0,2.69e-1,
6.748000e+0,2.69e-1,
6.748100e+0,2.68e-1,
6.748200e+0,2.68e-1,
6.748300e+0,2.68e-1,
6.748400e+0,2.68e-1,
6.748500e+0,2.68e-1,
6.748600e+0,2.68e-1,
6.748700e+0,2.67e-1,
6.748800e+0,2.67e-1,
6.748900e+0,2.67e-1,
6.749000e+0,2.67e-1,
6.749100e+0,2.67e-1,
6.749200e+0,2.67e-1,
6.749300e+0,2.66e-1,
6.749400e+0,2.66e-1,
6.749500e+0,2.66e-1,
6.749600e+0,2.66e-1,
6.749700e+0,2.66e-1,
6.749800e+0,2.66e-1,
6.749900e+0,2.65e-1,
6.750000e+0,2.65e-1,
6.750100e+0,2.65e-1,
6.750200e+0,2.65e-1,
6.750300e+0,2.65e-1,
6.750400e+0,2.65e-1,
6.750500e+0,2.64e-1,
6.750600e+0,2.64e-1,
6.750700e+0,2.64e-1,
6.750800e+0,2.64e-1,
6.750900e+0,2.64e-1,
6.751000e+0,2.64e-1,
6.751100e+0,2.64e-1,
6.751200e+0,2.64e-1,
6.751300e+0,2.64e-1,
6.751400e+0,2.64e-1,
6.751500e+0,2.64e-1,
6.751600e+0,2.64e-1,
6.751700e+0,2.63e-1,
6.751800e+0,2.63e-1,
6.751900e+0,2.63e-1,
6.752000e+0,2.63e-1,
6.752100e+0,2.63e-1,
6.752200e+0,2.63e-1,
6.752300e+0,2.62e-1,
6.752400e+0,2.62e-1,
6.752500e+0,2.62e-1,
6.752600e+0,2.62e-1,
6.752700e+0,2.61e-1,
6.752800e+0,2.61e-1,
6.752900e+0,2.61e-1,
6.753000e+0,2.61e-1,
6.753100e+0,2.60e-1,
6.753200e+0,2.60e-1,
6.753300e+0,2.60e-1,
6.753400e+0,2.60e-1,
6.753500e+0,2.60e-1,
6.753600e+0,2.60e-1,
6.753700e+0,2.60e-1,
6.753800e+0,2.60e-1,
6.753900e+0,2.58e-1,
6.754000e+0,2.58e-1,
6.754100e+0,2.58e-1,
6.754200e+0,2.58e-1,
6.754300e+0,2.58e-1,
6.754400e+0,2.58e-1,
6.754500e+0,2.57e-1,
6.754600e+0,2.57e-1,
6.754700e+0,2.56e-1,
6.754800e+0,2.56e-1,
6.754900e+0,2.56e-1,
6.755000e+0,2.56e-1,
6.755100e+0,2.56e-1,
6.755200e+0,2.56e-1,
6.755300e+0,2.56e-1,
6.755400e+0,2.56e-1,
6.755500e+0,2.56e-1,
6.755600e+0,2.56e-1,
6.755700e+0,2.56e-1,
6.755800e+0,2.56e-1,
6.755900e+0,2.55e-1,
6.756000e+0,2.55e-1,
6.756100e+0,2.55e-1,
6.756200e+0,2.55e-1,
6.756300e+0,2.54e-1,
6.756400e+0,2.54e-1,
6.756500e+0,2.54e-1,
6.756600e+0,2.54e-1,
6.756700e+0,2.52e-1,
6.756800e+0,2.52e-1,
6.756900e+0,2.53e-1,
6.757000e+0,2.53e-1,
6.757100e+0,2.52e-1,
6.757200e+0,2.52e-1,
6.757300e+0,2.51e-1,
6.757400e+0,2.51e-1,
6.757500e+0,2.52e-1,
6.757600e+0,2.52e-1,
6.757700e+0,2.51e-1,
6.757800e+0,2.51e-1,
6.757900e+0,2.50e-1,
6.758000e+0,2.50e-1,
6.758100e+0,2.50e-1,
6.758200e+0,2.50e-1,
6.758300e+0,2.50e-1,
6.758400e+0,2.50e-1,
6.758500e+0,2.49e-1,
6.758600e+0,2.49e-1,
6.758700e+0,2.48e-1,
6.758800e+0,2.48e-1,
6.758900e+0,2.48e-1,
6.759000e+0,2.48e-1,
6.759100e+0,2.48e-1,
6.759200e+0,2.48e-1,
6.759300e+0,2.48e-1,
6.759400e+0,2.48e-1,
6.759500e+0,2.47e-1,
6.759600e+0,2.47e-1,
6.759700e+0,2.46e-1,
6.759800e+0,2.46e-1,
6.759900e+0,2.46e-1,
6.760000e+0,2.46e-1,
6.760100e+0,2.45e-1,
6.760200e+0,2.45e-1,
6.760300e+0,2.44e-1,
6.760400e+0,2.44e-1,
6.760500e+0,2.44e-1,
6.760600e+0,2.44e-1,
6.760700e+0,2.44e-1,
6.760800e+0,2.44e-1,
6.760900e+0,2.44e-1,
6.761000e+0,2.44e-1,
6.761100e+0,2.44e-1,
6.761200e+0,2.44e-1,
6.761300e+0,2.43e-1,
6.761400e+0,2.43e-1,
6.761500e+0,2.43e-1,
6.761600e+0,2.43e-1,
6.761700e+0,2.41e-1,
6.761800e+0,2.41e-1,
6.761900e+0,2.41e-1,
6.762000e+0,2.41e-1,
6.762100e+0,2.41e-1,
6.762200e+0,2.41e-1,
6.762300e+0,2.40e-1,
6.762400e+0,2.40e-1,
6.762500e+0,2.40e-1,
6.762600e+0,2.40e-1,
6.762700e+0,2.40e-1,
6.762800e+0,2.40e-1,
6.762900e+0,2.40e-1,
6.763000e+0,2.40e-1,
6.763100e+0,2.40e-1,
6.763200e+0,2.40e-1,
6.763300e+0,2.38e-1,
6.763400e+0,2.38e-1,
6.763500e+0,2.38e-1,
6.763600e+0,2.38e-1,
6.763700e+0,2.37e-1,
6.763800e+0,2.37e-1,
6.763900e+0,2.37e-1,
6.764000e+0,2.37e-1,
6.764100e+0,2.37e-1,
6.764200e+0,2.37e-1,
6.764300e+0,2.37e-1,
6.764400e+0,2.37e-1,
6.764500e+0,2.36e-1,
6.764600e+0,2.36e-1,
6.764700e+0,2.36e-1,
6.764800e+0,2.36e-1,
6.764900e+0,2.35e-1,
6.765000e+0,2.35e-1,
6.765100e+0,2.35e-1,
6.765200e+0,2.35e-1,
6.765300e+0,2.35e-1,
6.765400e+0,2.35e-1,
6.765500e+0,2.34e-1,
6.765600e+0,2.34e-1,
6.765700e+0,2.34e-1,
6.765800e+0,2.34e-1,
6.765900e+0,2.33e-1,
6.766000e+0,2.33e-1,
6.766100e+0,2.34e-1,
6.766200e+0,2.34e-1,
6.766300e+0,2.33e-1,
6.766400e+0,2.33e-1,
6.766500e+0,2.33e-1,
6.766600e+0,2.33e-1,
6.766700e+0,2.32e-1,
6.766800e+0,2.32e-1,
6.766900e+0,2.32e-1,
6.767000e+0,2.32e-1,
6.767100e+0,2.32e-1,
6.767200e+0,2.32e-1,
6.767300e+0,2.32e-1,
6.767400e+0,2.32e-1,
6.767500e+0,2.32e-1,
6.767600e+0,2.32e-1,
6.767700e+0,2.32e-1,
6.767800e+0,2.32e-1,
6.767900e+0,2.31e-1,
6.768000e+0,2.31e-1,
6.768100e+0,2.32e-1,
6.768200e+0,2.32e-1,
6.768300e+0,2.32e-1,
6.768400e+0,2.32e-1,
6.768500e+0,2.30e-1,
6.768600e+0,2.30e-1,
6.768700e+0,2.31e-1,
6.768800e+0,2.31e-1,
6.768900e+0,2.30e-1,
6.769000e+0,2.30e-1,
6.769100e+0,2.30e-1,
6.769200e+0,2.30e-1,
6.769300e+0,2.29e-1,
6.769400e+0,2.29e-1,
6.769500e+0,2.28e-1,
6.769600e+0,2.28e-1,
6.769700e+0,2.29e-1,
6.769800e+0,2.29e-1,
6.769900e+0,2.28e-1,
6.770000e+0,2.28e-1,
6.770100e+0,2.28e-1,
6.770200e+0,2.28e-1,
6.770300e+0,2.28e-1,
6.770400e+0,2.28e-1,
6.770500e+0,2.28e-1,
6.770600e+0,2.28e-1,
6.770700e+0,2.28e-1,
6.770800e+0,2.28e-1,
6.770900e+0,2.28e-1,
6.771000e+0,2.28e-1,
6.771100e+0,2.27e-1,
6.771200e+0,2.27e-1,
6.771300e+0,2.26e-1,
6.771400e+0,2.26e-1,
6.771500e+0,2.26e-1,
6.771600e+0,2.26e-1,
6.771700e+0,2.26e-1,
6.771800e+0,2.26e-1,
6.771900e+0,2.26e-1,
6.772000e+0,2.26e-1,
6.772100e+0,2.25e-1,
6.772200e+0,2.25e-1,
6.772300e+0,2.26e-1,
6.772400e+0,2.26e-1,
6.772500e+0,2.24e-1,
6.772600e+0,2.24e-1,
6.772700e+0,2.25e-1,
6.772800e+0,2.25e-1,
6.772900e+0,2.24e-1,
6.773000e+0,2.24e-1,
6.773100e+0,2.24e-1,
6.773200e+0,2.24e-1,
6.773300e+0,2.24e-1,
6.773400e+0,2.24e-1,
6.773500e+0,2.24e-1,
6.773600e+0,2.24e-1,
6.773700e+0,2.23e-1,
6.773800e+0,2.23e-1,
6.773900e+0,2.23e-1,
6.774000e+0,2.23e-1,
6.774100e+0,2.23e-1,
6.774200e+0,2.23e-1,
6.774300e+0,2.22e-1,
6.774400e+0,2.22e-1,
6.774500e+0,2.22e-1,
6.774600e+0,2.22e-1,
6.774700e+0,2.23e-1,
6.774800e+0,2.23e-1,
6.774900e+0,2.22e-1,
6.775000e+0,2.22e-1,
6.775100e+0,2.20e-1,
6.775200e+0,2.20e-1,
6.775300e+0,2.20e-1,
6.775400e+0,2.20e-1,
6.775500e+0,2.20e-1,
6.775600e+0,2.20e-1,
6.775700e+0,2.20e-1,
6.775800e+0,2.20e-1,
6.775900e+0,2.19e-1,
6.776000e+0,2.19e-1,
6.776100e+0,2.19e-1,
6.776200e+0,2.19e-1,
6.776300e+0,2.19e-1,
6.776400e+0,2.19e-1,
6.776500e+0,2.19e-1,
6.776600e+0,2.19e-1,
6.776700e+0,2.18e-1,
6.776800e+0,2.18e-1,
6.776900e+0,2.17e-1,
6.777000e+0,2.17e-1,
6.777100e+0,2.17e-1,
6.777200e+0,2.17e-1,
6.777300e+0,2.16e-1,
6.777400e+0,2.16e-1,
6.777500e+0,2.16e-1,
6.777600e+0,2.16e-1,
6.777700e+0,2.16e-1,
6.777800e+0,2.16e-1,
6.777900e+0,2.16e-1,
6.778000e+0,2.16e-1,
6.778100e+0,2.16e-1,
6.778200e+0,2.16e-1,
6.778300e+0,2.16e-1,
6.778400e+0,2.16e-1,
6.778500e+0,2.15e-1,
6.778600e+0,2.15e-1,
6.778700e+0,2.15e-1,
6.778800e+0,2.15e-1,
6.778900e+0,2.15e-1,
6.779000e+0,2.15e-1,
6.779100e+0,2.14e-1,
6.779200e+0,2.14e-1,
6.779300e+0,2.15e-1,
6.779400e+0,2.15e-1,
6.779500e+0,2.14e-1,
6.779600e+0,2.14e-1,
6.779700e+0,2.13e-1,
6.779800e+0,2.13e-1,
6.779900e+0,2.13e-1,
6.780000e+0,2.13e-1,
6.780100e+0,2.13e-1,
6.780200e+0,2.13e-1,
6.780300e+0,2.13e-1,
6.780400e+0,2.13e-1,
6.780500e+0,2.13e-1,
6.780600e+0,2.13e-1,
6.780700e+0,2.12e-1,
6.780800e+0,2.12e-1,
6.780900e+0,2.12e-1,
6.781000e+0,2.12e-1,
6.781100e+0,2.12e-1,
6.781200e+0,2.12e-1,
6.781300e+0,2.11e-1,
6.781400e+0,2.11e-1,
6.781500e+0,2.11e-1,
6.781600e+0,2.11e-1,
6.781700e+0,2.11e-1,
6.781800e+0,2.11e-1,
6.781900e+0,2.10e-1,
6.782000e+0,2.10e-1,
6.782100e+0,2.11e-1,
6.782200e+0,2.11e-1,
6.782300e+0,2.10e-1,
6.782400e+0,2.10e-1,
6.782500e+0,2.10e-1,
6.782600e+0,2.10e-1,
6.782700e+0,2.10e-1,
6.782800e+0,2.10e-1,
6.782900e+0,2.09e-1,
6.783000e+0,2.09e-1,
6.783100e+0,2.09e-1,
6.783200e+0,2.09e-1,
6.783300e+0,2.09e-1,
6.783400e+0,2.09e-1,
6.783500e+0,2.10e-1,
6.783600e+0,2.10e-1,
6.783700e+0,2.08e-1,
6.783800e+0,2.08e-1,
6.783900e+0,2.09e-1,
6.784000e+0,2.09e-1,
6.784100e+0,2.09e-1,
6.784200e+0,2.09e-1,
6.784300e+0,2.08e-1,
6.784400e+0,2.08e-1,
6.784500e+0,2.08e-1,
6.784600e+0,2.08e-1,
6.784700e+0,2.08e-1,
6.784800e+0,2.08e-1,
6.784900e+0,2.08e-1,
6.785000e+0,2.08e-1,
6.785100e+0,2.08e-1,
6.785200e+0,2.08e-1,
6.785300e+0,2.08e-1,
6.785400e+0,2.08e-1,
6.785500e+0,2.08e-1,
6.785600e+0,2.08e-1,
6.785700e+0,2.07e-1,
6.785800e+0,2.07e-1,
6.785900e+0,2.08e-1,
6.786000e+0,2.08e-1,
6.786100e+0,2.07e-1,
6.786200e+0,2.07e-1,
6.786300e+0,2.07e-1,
6.786400e+0,2.07e-1,
6.786500e+0,2.08e-1,
6.786600e+0,2.08e-1,
6.786700e+0,2.06e-1,
6.786800e+0,2.06e-1,
6.786900e+0,2.07e-1,
6.787000e+0,2.07e-1,
6.787100e+0,2.06e-1,
6.787200e+0,2.06e-1,
6.787300e+0,2.06e-1,
6.787400e+0,2.06e-1,
6.787500e+0,2.06e-1,
6.787600e+0,2.06e-1,
6.787700e+0,2.06e-1,
6.787800e+0,2.06e-1,
6.787900e+0,2.06e-1,
6.788000e+0,2.06e-1,
6.788100e+0,2.05e-1,
6.788200e+0,2.05e-1,
6.788300e+0,2.05e-1,
6.788400e+0,2.05e-1,
6.788500e+0,2.05e-1,
6.788600e+0,2.05e-1,
6.788700e+0,2.05e-1,
6.788800e+0,2.05e-1,
6.788900e+0,2.05e-1,
6.789000e+0,2.05e-1,
6.789100e+0,2.05e-1,
6.789200e+0,2.05e-1,
6.789300e+0,2.05e-1,
6.789400e+0,2.05e-1,
6.789500e+0,2.04e-1,
6.789600e+0,2.04e-1,
6.789700e+0,2.04e-1,
6.789800e+0,2.04e-1,
6.789900e+0,2.04e-1,
6.790000e+0,2.04e-1,
6.790100e+0,2.04e-1,
6.790200e+0,2.04e-1,
6.790300e+0,2.04e-1,
6.790400e+0,2.04e-1,
6.790500e+0,2.03e-1,
6.790600e+0,2.03e-1,
6.790700e+0,2.04e-1,
6.790800e+0,2.04e-1,
6.790900e+0,2.04e-1,
6.791000e+0,2.04e-1,
6.791100e+0,2.04e-1,
6.791200e+0,2.04e-1,
6.791300e+0,2.04e-1,
6.791400e+0,2.04e-1,
6.791500e+0,2.03e-1,
6.791600e+0,2.03e-1,
6.791700e+0,2.03e-1,
6.791800e+0,2.03e-1,
6.791900e+0,2.03e-1,
6.792000e+0,2.03e-1,
6.792100e+0,2.03e-1,
6.792200e+0,2.03e-1,
6.792300e+0,2.03e-1,
6.792400e+0,2.03e-1,
6.792500e+0,2.02e-1,
6.792600e+0,2.02e-1,
6.792700e+0,2.02e-1,
6.792800e+0,2.02e-1,
6.792900e+0,2.02e-1,
6.793000e+0,2.02e-1,
6.793100e+0,2.02e-1,
6.793200e+0,2.02e-1,
6.793300e+0,2.01e-1,
6.793400e+0,2.01e-1,
6.793500e+0,2.02e-1,
6.793600e+0,2.02e-1,
6.793700e+0,2.02e-1,
6.793800e+0,2.02e-1,
6.793900e+0,2.02e-1,
6.794000e+0,2.02e-1,
6.794100e+0,2.02e-1,
6.794200e+0,2.02e-1,
6.794300e+0,2.02e-1,
6.794400e+0,2.02e-1,
6.794500e+0,2.01e-1,
6.794600e+0,2.01e-1,
6.794700e+0,2.02e-1,
6.794800e+0,2.02e-1,
6.794900e+0,2.00e-1,
6.795000e+0,2.00e-1,
6.795100e+0,2.01e-1,
6.795200e+0,2.01e-1,
6.795300e+0,2.01e-1,
6.795400e+0,2.01e-1,
6.795500e+0,2.00e-1,
6.795600e+0,2.00e-1,
6.795700e+0,2.01e-1,
6.795800e+0,2.01e-1,
6.795900e+0,2.01e-1,
6.796000e+0,2.01e-1,
6.796100e+0,2.01e-1,
6.796200e+0,2.01e-1,
6.796300e+0,2.00e-1,
6.796400e+0,2.00e-1,
6.796500e+0,2.00e-1,
6.796600e+0,2.00e-1,
6.796700e+0,2.00e-1,
6.796800e+0,2.00e-1,
6.796900e+0,2.00e-1,
6.797000e+0,2.00e-1,
6.797100e+0,2.00e-1,
6.797200e+0,2.00e-1,
6.797300e+0,2.00e-1,
6.797400e+0,2.00e-1,
6.797500e+0,2.00e-1,
6.797600e+0,2.00e-1,
6.797700e+0,2.01e-1,
6.797800e+0,2.01e-1,
6.797900e+0,2.00e-1,
6.798000e+0,2.00e-1,
6.798100e+0,2.00e-1,
6.798200e+0,2.00e-1,
6.798300e+0,2.00e-1,
6.798400e+0,2.00e-1,
6.798500e+0,2.00e-1,
6.798600e+0,2.00e-1,
6.798700e+0,2.00e-1,
6.798800e+0,2.00e-1,
6.798900e+0,2.00e-1,
6.799000e+0,2.00e-1,
6.799100e+0,2.00e-1,
6.799200e+0,2.00e-1,
6.799300e+0,2.00e-1,
6.799400e+0,2.00e-1,
6.799500e+0,2.00e-1,
6.799600e+0,2.00e-1,
6.799700e+0,2.00e-1,
6.799800e+0,2.00e-1,
6.799900e+0,2.00e-1,
6.800000e+0,2.00e-1,
6.800100e+0,2.00e-1,
6.800200e+0,2.00e-1,
6.800300e+0,2.00e-1,
6.800400e+0,2.00e-1,
6.800500e+0,2.00e-1,
6.800600e+0,2.00e-1,
6.800700e+0,1.99e-1,
6.800800e+0,1.99e-1,
6.800900e+0,2.00e-1,
6.801000e+0,2.00e-1,
6.801100e+0,1.99e-1,
6.801200e+0,1.99e-1,
6.801300e+0,2.00e-1,
6.801400e+0,2.00e-1,
6.801500e+0,2.00e-1,
6.801600e+0,2.00e-1,
6.801700e+0,1.99e-1,
6.801800e+0,1.99e-1,
6.801900e+0,2.00e-1,
6.802000e+0,2.00e-1,
6.802100e+0,2.00e-1,
6.802200e+0,2.00e-1,
6.802300e+0,2.00e-1,
6.802400e+0,2.00e-1,
6.802500e+0,2.00e-1,
6.802600e+0,2.00e-1,
6.802700e+0,2.00e-1,
6.802800e+0,2.00e-1,
6.802900e+0,2.00e-1,
6.803000e+0,2.00e-1,
6.803100e+0,2.00e-1,
6.803200e+0,2.00e-1,
6.803300e+0,2.00e-1,
6.803400e+0,2.00e-1,
6.803500e+0,2.00e-1,
6.803600e+0,2.00e-1,
6.803700e+0,1.99e-1,
6.803800e+0,1.99e-1,
6.803900e+0,2.00e-1,
6.804000e+0,2.00e-1,
6.804100e+0,2.00e-1,
6.804200e+0,2.00e-1,
6.804300e+0,2.00e-1,
6.804400e+0,2.00e-1,
6.804500e+0,2.00e-1,
6.804600e+0,2.00e-1,
6.804700e+0,2.00e-1,
6.804800e+0,2.00e-1,
6.804900e+0,2.00e-1,
6.805000e+0,2.00e-1,
6.805100e+0,2.00e-1,
6.805200e+0,2.00e-1,
6.805300e+0,2.00e-1,
6.805400e+0,2.00e-1,
6.805500e+0,2.00e-1,
6.805600e+0,2.00e-1,
6.805700e+0,2.00e-1,
6.805800e+0,2.00e-1,
6.805900e+0,2.00e-1,
6.806000e+0,2.00e-1,
6.806100e+0,2.00e-1,
6.806200e+0,2.00e-1,
6.806300e+0,2.00e-1,
6.806400e+0,2.00e-1,
6.806500e+0,2.00e-1,
6.806600e+0,2.00e-1,
6.806700e+0,2.00e-1,
6.806800e+0,2.00e-1,
6.806900e+0,2.00e-1,
6.807000e+0,2.00e-1,
6.807100e+0,2.00e-1,
6.807200e+0,2.00e-1,
6.807300e+0,2.00e-1,
6.807400e+0,2.00e-1,
6.807500e+0,2.00e-1,
6.807600e+0,2.00e-1,
6.807700e+0,2.00e-1,
6.807800e+0,2.00e-1,
6.807900e+0,2.00e-1,
6.808000e+0,2.00e-1,
6.808100e+0,2.00e-1,
6.808200e+0,2.00e-1,
6.808300e+0,2.01e-1,
6.808400e+0,2.01e-1,
6.808500e+0,2.00e-1,
6.808600e+0,2.00e-1,
6.808700e+0,2.00e-1,
6.808800e+0,2.00e-1,
6.808900e+0,2.01e-1,
6.809000e+0,2.01e-1,
6.809100e+0,2.00e-1,
6.809200e+0,2.00e-1,
6.809300e+0,2.01e-1,
6.809400e+0,2.01e-1,
6.809500e+0,2.01e-1,
6.809600e+0,2.01e-1,
6.809700e+0,2.01e-1,
6.809800e+0,2.01e-1,
6.809900e+0,2.01e-1,
6.810000e+0,2.01e-1,
6.810100e+0,2.01e-1,
6.810200e+0,2.01e-1,
6.810300e+0,2.01e-1,
6.810400e+0,2.01e-1,
6.810500e+0,2.01e-1,
6.810600e+0,2.01e-1,
6.810700e+0,2.02e-1,
6.810800e+0,2.02e-1,
6.810900e+0,2.01e-1,
6.811000e+0,2.01e-1,
6.811100e+0,2.01e-1,
6.811200e+0,2.01e-1,
6.811300e+0,2.02e-1,
6.811400e+0,2.02e-1,
6.811500e+0,2.02e-1,
6.811600e+0,2.02e-1,
6.811700e+0,2.01e-1,
6.811800e+0,2.01e-1,
6.811900e+0,2.02e-1,
6.812000e+0,2.02e-1,
6.812100e+0,2.02e-1,
6.812200e+0,2.02e-1,
6.812300e+0,2.02e-1,
6.812400e+0,2.02e-1,
6.812500e+0,2.02e-1,
6.812600e+0,2.02e-1,
6.812700e+0,2.03e-1,
6.812800e+0,2.03e-1,
6.812900e+0,2.03e-1,
6.813000e+0,2.03e-1,
6.813100e+0,2.02e-1,
6.813200e+0,2.02e-1,
6.813300e+0,2.03e-1,
6.813400e+0,2.03e-1,
6.813500e+0,2.03e-1,
6.813600e+0,2.03e-1,
6.813700e+0,2.04e-1,
6.813800e+0,2.04e-1,
6.813900e+0,2.04e-1,
6.814000e+0,2.04e-1,
6.814100e+0,2.04e-1,
6.814200e+0,2.04e-1,
6.814300e+0,2.03e-1,
6.814400e+0,2.03e-1,
6.814500e+0,2.04e-1,
6.814600e+0,2.04e-1,
6.814700e+0,2.04e-1,
6.814800e+0,2.04e-1,
6.814900e+0,2.04e-1,
6.815000e+0,2.04e-1,
6.815100e+0,2.04e-1,
6.815200e+0,2.04e-1,
6.815300e+0,2.04e-1,
6.815400e+0,2.04e-1,
6.815500e+0,2.05e-1,
6.815600e+0,2.05e-1,
6.815700e+0,2.05e-1,
6.815800e+0,2.05e-1,
6.815900e+0,2.05e-1,
6.816000e+0,2.05e-1,
6.816100e+0,2.05e-1,
6.816200e+0,2.05e-1,
6.816300e+0,2.05e-1,
6.816400e+0,2.05e-1,
6.816500e+0,2.05e-1,
6.816600e+0,2.05e-1,
6.816700e+0,2.05e-1,
6.816800e+0,2.05e-1,
6.816900e+0,2.05e-1,
6.817000e+0,2.05e-1,
6.817100e+0,2.05e-1,
6.817200e+0,2.05e-1,
6.817300e+0,2.05e-1,
6.817400e+0,2.05e-1,
6.817500e+0,2.05e-1,
6.817600e+0,2.05e-1,
6.817700e+0,2.06e-1,
6.817800e+0,2.06e-1,
6.817900e+0,2.05e-1,
6.818000e+0,2.05e-1,
6.818100e+0,2.06e-1,
6.818200e+0,2.06e-1,
6.818300e+0,2.06e-1,
6.818400e+0,2.06e-1,
6.818500e+0,2.06e-1,
6.818600e+0,2.06e-1,
6.818700e+0,2.06e-1,
6.818800e+0,2.06e-1,
6.818900e+0,2.06e-1,
6.819000e+0,2.06e-1,
6.819100e+0,2.06e-1,
6.819200e+0,2.06e-1,
6.819300e+0,2.06e-1,
6.819400e+0,2.06e-1,
6.819500e+0,2.07e-1,
6.819600e+0,2.07e-1,
6.819700e+0,2.07e-1,
6.819800e+0,2.07e-1,
6.819900e+0,2.07e-1,
6.820000e+0,2.07e-1,
6.820100e+0,2.08e-1,
6.820200e+0,2.08e-1,
6.820300e+0,2.08e-1,
6.820400e+0,2.08e-1,
6.820500e+0,2.08e-1,
6.820600e+0,2.08e-1,
6.820700e+0,2.08e-1,
6.820800e+0,2.08e-1,
6.820900e+0,2.08e-1,
6.821000e+0,2.08e-1,
6.821100e+0,2.08e-1,
6.821200e+0,2.08e-1,
6.821300e+0,2.09e-1,
6.821400e+0,2.09e-1,
6.821500e+0,2.08e-1,
6.821600e+0,2.08e-1,
6.821700e+0,2.09e-1,
6.821800e+0,2.09e-1,
6.821900e+0,2.10e-1,
6.822000e+0,2.10e-1,
6.822100e+0,2.09e-1,
6.822200e+0,2.09e-1,
6.822300e+0,2.09e-1,
6.822400e+0,2.09e-1,
6.822500e+0,2.10e-1,
6.822600e+0,2.10e-1,
6.822700e+0,2.10e-1,
6.822800e+0,2.10e-1,
6.822900e+0,2.10e-1,
6.823000e+0,2.10e-1,
6.823100e+0,2.11e-1,
6.823200e+0,2.11e-1,
6.823300e+0,2.11e-1,
6.823400e+0,2.11e-1,
6.823500e+0,2.11e-1,
6.823600e+0,2.11e-1,
6.823700e+0,2.11e-1,
6.823800e+0,2.11e-1,
6.823900e+0,2.12e-1,
6.824000e+0,2.12e-1,
6.824100e+0,2.12e-1,
6.824200e+0,2.12e-1,
6.824300e+0,2.12e-1,
6.824400e+0,2.12e-1,
6.824500e+0,2.12e-1,
6.824600e+0,2.12e-1,
6.824700e+0,2.12e-1,
6.824800e+0,2.12e-1,
6.824900e+0,2.13e-1,
6.825000e+0,2.13e-1,
6.825100e+0,2.13e-1,
6.825200e+0,2.13e-1,
6.825300e+0,2.14e-1,
6.825400e+0,2.14e-1,
6.825500e+0,2.14e-1,
6.825600e+0,2.14e-1,
6.825700e+0,2.13e-1,
6.825800e+0,2.13e-1,
6.825900e+0,2.14e-1,
6.826000e+0,2.14e-1,
6.826100e+0,2.15e-1,
6.826200e+0,2.15e-1,
6.826300e+0,2.15e-1,
6.826400e+0,2.15e-1,
6.826500e+0,2.16e-1,
6.826600e+0,2.16e-1,
6.826700e+0,2.16e-1,
6.826800e+0,2.16e-1,
6.826900e+0,2.16e-1,
6.827000e+0,2.16e-1,
6.827100e+0,2.16e-1,
6.827200e+0,2.16e-1,
6.827300e+0,2.16e-1,
6.827400e+0,2.16e-1,
6.827500e+0,2.17e-1,
6.827600e+0,2.17e-1,
6.827700e+0,2.17e-1,
6.827800e+0,2.17e-1,
6.827900e+0,2.17e-1,
6.828000e+0,2.17e-1,
6.828100e+0,2.18e-1,
6.828200e+0,2.18e-1,
6.828300e+0,2.19e-1,
6.828400e+0,2.19e-1,
6.828500e+0,2.19e-1,
6.828600e+0,2.19e-1,
6.828700e+0,2.18e-1,
6.828800e+0,2.18e-1,
6.828900e+0,2.19e-1,
6.829000e+0,2.19e-1,
6.829100e+0,2.20e-1,
6.829200e+0,2.20e-1,
6.829300e+0,2.20e-1,
6.829400e+0,2.20e-1,
6.829500e+0,2.20e-1,
6.829600e+0,2.20e-1,
6.829700e+0,2.20e-1,
6.829800e+0,2.20e-1,
6.829900e+0,2.20e-1,
6.830000e+0,2.20e-1,
6.830100e+0,2.21e-1,
6.830200e+0,2.21e-1,
6.830300e+0,2.21e-1,
6.830400e+0,2.21e-1,
6.830500e+0,2.22e-1,
6.830600e+0,2.22e-1,
6.830700e+0,2.22e-1,
6.830800e+0,2.22e-1,
6.830900e+0,2.22e-1,
6.831000e+0,2.22e-1,
6.831100e+0,2.22e-1,
6.831200e+0,2.22e-1,
6.831300e+0,2.23e-1,
6.831400e+0,2.23e-1,
6.831500e+0,2.23e-1,
6.831600e+0,2.23e-1,
6.831700e+0,2.24e-1,
6.831800e+0,2.24e-1,
6.831900e+0,2.23e-1,
6.832000e+0,2.23e-1,
6.832100e+0,2.24e-1,
6.832200e+0,2.24e-1,
6.832300e+0,2.24e-1,
6.832400e+0,2.24e-1,
6.832500e+0,2.25e-1,
6.832600e+0,2.25e-1,
6.832700e+0,2.25e-1,
6.832800e+0,2.25e-1,
6.832900e+0,2.25e-1,
6.833000e+0,2.25e-1,
6.833100e+0,2.25e-1,
6.833200e+0,2.25e-1,
6.833300e+0,2.25e-1,
6.833400e+0,2.25e-1,
6.833500e+0,2.25e-1,
6.833600e+0,2.25e-1,
6.833700e+0,2.26e-1,
6.833800e+0,2.26e-1,
6.833900e+0,2.27e-1,
6.834000e+0,2.27e-1,
6.834100e+0,2.27e-1,
6.834200e+0,2.27e-1,
6.834300e+0,2.26e-1,
6.834400e+0,2.26e-1,
6.834500e+0,2.26e-1,
6.834600e+0,2.26e-1,
6.834700e+0,2.28e-1,
6.834800e+0,2.28e-1,
6.834900e+0,2.27e-1,
6.835000e+0,2.27e-1,
6.835100e+0,2.28e-1,
6.835200e+0,2.28e-1,
6.835300e+0,2.28e-1,
6.835400e+0,2.28e-1,
6.835500e+0,2.28e-1,
6.835600e+0,2.28e-1,
6.835700e+0,2.28e-1,
6.835800e+0,2.28e-1,
6.835900e+0,2.28e-1,
6.836000e+0,2.28e-1,
6.836100e+0,2.28e-1,
6.836200e+0,2.28e-1,
6.836300e+0,2.29e-1,
6.836400e+0,2.29e-1,
6.836500e+0,2.30e-1,
6.836600e+0,2.30e-1,
6.836700e+0,2.31e-1,
6.836800e+0,2.31e-1,
6.836900e+0,2.30e-1,
6.837000e+0,2.30e-1,
6.837100e+0,2.31e-1,
6.837200e+0,2.31e-1,
6.837300e+0,2.31e-1,
6.837400e+0,2.31e-1,
6.837500e+0,2.31e-1,
6.837600e+0,2.31e-1,
6.837700e+0,2.31e-1,
6.837800e+0,2.31e-1,
6.837900e+0,2.32e-1,
6.838000e+0,2.32e-1,
6.838100e+0,2.32e-1,
6.838200e+0,2.32e-1,
6.838300e+0,2.32e-1,
6.838400e+0,2.32e-1,
6.838500e+0,2.32e-1,
6.838600e+0,2.32e-1,
6.838700e+0,2.33e-1,
6.838800e+0,2.33e-1,
6.838900e+0,2.33e-1,
6.839000e+0,2.33e-1,
6.839100e+0,2.34e-1,
6.839200e+0,2.34e-1,
6.839300e+0,2.35e-1,
6.839400e+0,2.35e-1,
6.839500e+0,2.35e-1,
6.839600e+0,2.35e-1,
6.839700e+0,2.34e-1,
6.839800e+0,2.34e-1,
6.839900e+0,2.36e-1,
6.840000e+0,2.36e-1,
6.840100e+0,2.35e-1,
6.840200e+0,2.35e-1,
6.840300e+0,2.36e-1,
6.840400e+0,2.36e-1,
6.840500e+0,2.36e-1,
6.840600e+0,2.36e-1,
6.840700e+0,2.36e-1,
6.840800e+0,2.36e-1,
6.840900e+0,2.36e-1,
6.841000e+0,2.36e-1,
6.841100e+0,2.37e-1,
6.841200e+0,2.37e-1,
6.841300e+0,2.38e-1,
6.841400e+0,2.38e-1,
6.841500e+0,2.38e-1,
6.841600e+0,2.38e-1,
6.841700e+0,2.39e-1,
6.841800e+0,2.39e-1,
6.841900e+0,2.39e-1,
6.842000e+0,2.39e-1,
6.842100e+0,2.40e-1,
6.842200e+0,2.40e-1,
6.842300e+0,2.40e-1,
6.842400e+0,2.40e-1,
6.842500e+0,2.40e-1,
6.842600e+0,2.40e-1,
6.842700e+0,2.40e-1,
6.842800e+0,2.40e-1,
6.842900e+0,2.40e-1,
6.843000e+0,2.40e-1,
6.843100e+0,2.41e-1,
6.843200e+0,2.41e-1,
6.843300e+0,2.42e-1,
6.843400e+0,2.42e-1,
6.843500e+0,2.43e-1,
6.843600e+0,2.43e-1,
6.843700e+0,2.43e-1,
6.843800e+0,2.43e-1,
6.843900e+0,2.44e-1,
6.844000e+0,2.44e-1,
6.844100e+0,2.44e-1,
6.844200e+0,2.44e-1,
6.844300e+0,2.44e-1,
6.844400e+0,2.44e-1,
6.844500e+0,2.45e-1,
6.844600e+0,2.45e-1,
6.844700e+0,2.44e-1,
6.844800e+0,2.44e-1,
6.844900e+0,2.46e-1,
6.845000e+0,2.46e-1,
6.845100e+0,2.46e-1,
6.845200e+0,2.46e-1,
6.845300e+0,2.46e-1,
6.845400e+0,2.46e-1,
6.845500e+0,2.46e-1,
6.845600e+0,2.46e-1,
6.845700e+0,2.48e-1,
6.845800e+0,2.48e-1,
6.845900e+0,2.48e-1,
6.846000e+0,2.48e-1,
6.846100e+0,2.48e-1,
6.846200e+0,2.48e-1,
6.846300e+0,2.48e-1,
6.846400e+0,2.48e-1,
6.846500e+0,2.48e-1,
6.846600e+0,2.48e-1,
6.846700e+0,2.50e-1,
6.846800e+0,2.50e-1,
6.846900e+0,2.49e-1,
6.847000e+0,2.49e-1,
6.847100e+0,2.50e-1,
6.847200e+0,2.50e-1,
6.847300e+0,2.50e-1,
6.847400e+0,2.50e-1,
6.847500e+0,2.52e-1,
6.847600e+0,2.52e-1,
6.847700e+0,2.51e-1,
6.847800e+0,2.51e-1,
6.847900e+0,2.52e-1,
6.848000e+0,2.52e-1,
6.848100e+0,2.52e-1,
6.848200e+0,2.52e-1,
6.848300e+0,2.52e-1,
6.848400e+0,2.52e-1,
6.848500e+0,2.53e-1,
6.848600e+0,2.53e-1,
6.848700e+0,2.53e-1,
6.848800e+0,2.53e-1,
6.848900e+0,2.54e-1,
6.849000e+0,2.54e-1,
6.849100e+0,2.54e-1,
6.849200e+0,2.54e-1,
6.849300e+0,2.55e-1,
6.849400e+0,2.55e-1,
6.849500e+0,2.54e-1,
6.849600e+0,2.54e-1,
6.849700e+0,2.56e-1,
6.849800e+0,2.56e-1,
6.849900e+0,2.56e-1,
6.850000e+0,2.56e-1,
6.850100e+0,2.56e-1,
6.850200e+0,2.56e-1,
6.850300e+0,2.56e-1,
6.850400e+0,2.56e-1,
6.850500e+0,2.56e-1,
6.850600e+0,2.56e-1,
6.850700e+0,2.57e-1,
6.850800e+0,2.57e-1,
6.850900e+0,2.57e-1,
6.851000e+0,2.57e-1,
6.851100e+0,2.56e-1,
6.851200e+0,2.56e-1,
6.851300e+0,2.57e-1,
6.851400e+0,2.57e-1,
6.851500e+0,2.58e-1,
6.851600e+0,2.58e-1,
6.851700e+0,2.58e-1,
6.851800e+0,2.58e-1,
6.851900e+0,2.59e-1,
6.852000e+0,2.59e-1,
6.852100e+0,2.59e-1,
6.852200e+0,2.59e-1,
6.852300e+0,2.60e-1,
6.852400e+0,2.60e-1,
6.852500e+0,2.60e-1,
6.852600e+0,2.60e-1,
6.852700e+0,2.60e-1,
6.852800e+0,2.60e-1,
6.852900e+0,2.60e-1,
6.853000e+0,2.60e-1,
6.853100e+0,2.62e-1,
6.853200e+0,2.62e-1,
6.853300e+0,2.62e-1,
6.853400e+0,2.62e-1,
6.853500e+0,2.62e-1,
6.853600e+0,2.62e-1,
6.853700e+0,2.63e-1,
6.853800e+0,2.63e-1,
6.853900e+0,2.63e-1,
6.854000e+0,2.63e-1,
6.854100e+0,2.64e-1,
6.854200e+0,2.64e-1,
6.854300e+0,2.64e-1,
6.854400e+0,2.64e-1,
6.854500e+0,2.64e-1,
6.854600e+0,2.64e-1,
6.854700e+0,2.64e-1,
6.854800e+0,2.64e-1,
6.854900e+0,2.65e-1,
6.855000e+0,2.65e-1,
6.855100e+0,2.65e-1,
6.855200e+0,2.65e-1,
6.855300e+0,2.66e-1,
6.855400e+0,2.66e-1,
6.855500e+0,2.66e-1,
6.855600e+0,2.66e-1,
6.855700e+0,2.67e-1,
6.855800e+0,2.67e-1,
6.855900e+0,2.68e-1,
6.856000e+0,2.68e-1,
6.856100e+0,2.68e-1,
6.856200e+0,2.68e-1,
6.856300e+0,2.68e-1,
6.856400e+0,2.68e-1,
6.856500e+0,2.68e-1,
6.856600e+0,2.68e-1,
6.856700e+0,2.69e-1,
6.856800e+0,2.69e-1,
6.856900e+0,2.70e-1,
6.857000e+0,2.70e-1,
6.857100e+0,2.70e-1,
6.857200e+0,2.70e-1,
6.857300e+0,2.70e-1,
6.857400e+0,2.70e-1,
6.857500e+0,2.71e-1,
6.857600e+0,2.71e-1,
6.857700e+0,2.72e-1,
6.857800e+0,2.72e-1,
6.857900e+0,2.72e-1,
6.858000e+0,2.72e-1,
6.858100e+0,2.72e-1,
6.858200e+0,2.72e-1,
6.858300e+0,2.72e-1,
6.858400e+0,2.72e-1,
6.858500e+0,2.72e-1,
6.858600e+0,2.72e-1,
6.858700e+0,2.72e-1,
6.858800e+0,2.72e-1,
6.858900e+0,2.74e-1,
6.859000e+0,2.74e-1,
6.859100e+0,2.74e-1,
6.859200e+0,2.74e-1,
6.859300e+0,2.76e-1,
6.859400e+0,2.76e-1,
6.859500e+0,2.76e-1,
6.859600e+0,2.76e-1,
6.859700e+0,2.76e-1,
6.859800e+0,2.76e-1,
6.859900e+0,2.77e-1,
6.860000e+0,2.77e-1,
6.860100e+0,2.77e-1,
6.860200e+0,2.77e-1,
6.860300e+0,2.78e-1,
6.860400e+0,2.78e-1,
6.860500e+0,2.78e-1,
6.860600e+0,2.78e-1,
6.860700e+0,2.79e-1,
6.860800e+0,2.79e-1,
6.860900e+0,2.80e-1,
6.861000e+0,2.80e-1,
6.861100e+0,2.80e-1,
6.861200e+0,2.80e-1,
6.861300e+0,2.80e-1,
6.861400e+0,2.80e-1,
6.861500e+0,2.80e-1,
6.861600e+0,2.80e-1,
6.861700e+0,2.80e-1,
6.861800e+0,2.80e-1,
6.861900e+0,2.81e-1,
6.862000e+0,2.81e-1,
6.862100e+0,2.82e-1,
6.862200e+0,2.82e-1,
6.862300e+0,2.83e-1,
6.862400e+0,2.83e-1,
6.862500e+0,2.82e-1,
6.862600e+0,2.82e-1,
6.862700e+0,2.83e-1,
6.862800e+0,2.83e-1,
6.862900e+0,2.84e-1,
6.863000e+0,2.84e-1,
6.863100e+0,2.84e-1,
6.863200e+0,2.84e-1,
6.863300e+0,2.84e-1,
6.863400e+0,2.84e-1,
6.863500e+0,2.85e-1,
6.863600e+0,2.85e-1,
6.863700e+0,2.85e-1,
6.863800e+0,2.85e-1,
6.863900e+0,2.85e-1,
6.864000e+0,2.85e-1,
6.864100e+0,2.87e-1,
6.864200e+0,2.87e-1,
6.864300e+0,2.87e-1,
6.864400e+0,2.87e-1,
6.864500e+0,2.87e-1,
6.864600e+0,2.87e-1,
6.864700e+0,2.88e-1,
6.864800e+0,2.88e-1,
6.864900e+0,2.88e-1,
6.865000e+0,2.88e-1,
6.865100e+0,2.88e-1,
6.865200e+0,2.88e-1,
6.865300e+0,2.88e-1,
6.865400e+0,2.88e-1,
6.865500e+0,2.90e-1,
6.865600e+0,2.90e-1,
6.865700e+0,2.90e-1,
6.865800e+0,2.90e-1,
6.865900e+0,2.91e-1,
6.866000e+0,2.91e-1,
6.866100e+0,2.90e-1,
6.866200e+0,2.90e-1,
6.866300e+0,2.91e-1,
6.866400e+0,2.91e-1,
6.866500e+0,2.91e-1,
6.866600e+0,2.91e-1,
6.866700e+0,2.92e-1,
6.866800e+0,2.92e-1,
6.866900e+0,2.92e-1,
6.867000e+0,2.92e-1,
6.867100e+0,2.92e-1,
6.867200e+0,2.92e-1,
6.867300e+0,2.92e-1,
6.867400e+0,2.92e-1,
6.867500e+0,2.92e-1,
6.867600e+0,2.92e-1,
6.867700e+0,2.92e-1,
6.867800e+0,2.92e-1,
6.867900e+0,2.92e-1,
6.868000e+0,2.92e-1,
6.868100e+0,2.93e-1,
6.868200e+0,2.93e-1,
6.868300e+0,2.93e-1,
6.868400e+0,2.93e-1,
6.868500e+0,2.95e-1,
6.868600e+0,2.95e-1,
6.868700e+0,2.94e-1,
6.868800e+0,2.94e-1,
6.868900e+0,2.95e-1,
6.869000e+0,2.95e-1,
6.869100e+0,2.95e-1,
6.869200e+0,2.95e-1,
6.869300e+0,2.95e-1,
6.869400e+0,2.95e-1,
6.869500e+0,2.95e-1,
6.869600e+0,2.95e-1,
6.869700e+0,2.96e-1,
6.869800e+0,2.96e-1,
6.869900e+0,2.96e-1,
6.870000e+0,2.96e-1,
6.870100e+0,2.97e-1,
6.870200e+0,2.97e-1,
6.870300e+0,2.97e-1,
6.870400e+0,2.97e-1,
6.870500e+0,2.98e-1,
6.870600e+0,2.98e-1,
6.870700e+0,2.98e-1,
6.870800e+0,2.98e-1,
6.870900e+0,2.98e-1,
6.871000e+0,2.98e-1,
6.871100e+0,2.98e-1,
6.871200e+0,2.98e-1,
6.871300e+0,2.99e-1,
6.871400e+0,2.99e-1,
6.871500e+0,3.00e-1,
6.871600e+0,3.00e-1,
6.871700e+0,3.00e-1,
6.871800e+0,3.00e-1,
6.871900e+0,3.00e-1,
6.872000e+0,3.00e-1,
6.872100e+0,3.01e-1,
6.872200e+0,3.01e-1,
6.872300e+0,3.01e-1,
6.872400e+0,3.01e-1,
6.872500e+0,3.01e-1,
6.872600e+0,3.01e-1,
6.872700e+0,3.01e-1,
6.872800e+0,3.01e-1,
6.872900e+0,3.01e-1,
6.873000e+0,3.01e-1,
6.873100e+0,3.03e-1,
6.873200e+0,3.03e-1,
6.873300e+0,3.03e-1,
6.873400e+0,3.03e-1,
6.873500e+0,3.04e-1,
6.873600e+0,3.04e-1,
6.873700e+0,3.04e-1,
6.873800e+0,3.04e-1,
6.873900e+0,3.04e-1,
6.874000e+0,3.04e-1,
6.874100e+0,3.04e-1,
6.874200e+0,3.04e-1,
6.874300e+0,3.04e-1,
6.874400e+0,3.04e-1,
6.874500e+0,3.05e-1,
6.874600e+0,3.05e-1,
6.874700e+0,3.05e-1,
6.874800e+0,3.05e-1,
6.874900e+0,3.05e-1,
6.875000e+0,3.05e-1,
6.875100e+0,3.05e-1,
6.875200e+0,3.05e-1,
6.875300e+0,3.06e-1,
6.875400e+0,3.06e-1,
6.875500e+0,3.07e-1,
6.875600e+0,3.07e-1,
6.875700e+0,3.07e-1,
6.875800e+0,3.07e-1,
6.875900e+0,3.07e-1,
6.876000e+0,3.07e-1,
6.876100e+0,3.08e-1,
6.876200e+0,3.08e-1,
6.876300e+0,3.08e-1,
6.876400e+0,3.08e-1,
6.876500e+0,3.08e-1,
6.876600e+0,3.08e-1,
6.876700e+0,3.09e-1,
6.876800e+0,3.09e-1,
6.876900e+0,3.10e-1,
6.877000e+0,3.10e-1,
6.877100e+0,3.09e-1,
6.877200e+0,3.09e-1,
6.877300e+0,3.11e-1,
6.877400e+0,3.11e-1,
6.877500e+0,3.11e-1,
6.877600e+0,3.11e-1,
6.877700e+0,3.11e-1,
6.877800e+0,3.11e-1,
6.877900e+0,3.12e-1,
6.878000e+0,3.12e-1,
6.878100e+0,3.12e-1,
6.878200e+0,3.12e-1,
6.878300e+0,3.13e-1,
6.878400e+0,3.13e-1,
6.878500e+0,3.13e-1,
6.878600e+0,3.13e-1,
6.878700e+0,3.13e-1,
6.878800e+0,3.13e-1,
6.878900e+0,3.14e-1,
6.879000e+0,3.14e-1,
6.879100e+0,3.13e-1,
6.879200e+0,3.13e-1,
6.879300e+0,3.14e-1,
6.879400e+0,3.14e-1,
6.879500e+0,3.15e-1,
6.879600e+0,3.15e-1,
6.879700e+0,3.16e-1,
6.879800e+0,3.16e-1,
6.879900e+0,3.15e-1,
6.880000e+0,3.15e-1,
6.880100e+0,3.16e-1,
6.880200e+0,3.16e-1,
6.880300e+0,3.16e-1,
6.880400e+0,3.16e-1,
6.880500e+0,3.16e-1,
6.880600e+0,3.16e-1,
6.880700e+0,3.17e-1,
6.880800e+0,3.17e-1,
6.880900e+0,3.17e-1,
6.881000e+0,3.17e-1,
6.881100e+0,3.17e-1,
6.881200e+0,3.17e-1,
6.881300e+0,3.17e-1,
6.881400e+0,3.17e-1,
6.881500e+0,3.20e-1,
6.881600e+0,3.20e-1,
6.881700e+0,3.20e-1,
6.881800e+0,3.20e-1,
6.881900e+0,3.19e-1,
6.882000e+0,3.19e-1,
6.882100e+0,3.20e-1,
6.882200e+0,3.20e-1,
6.882300e+0,3.20e-1,
6.882400e+0,3.20e-1,
6.882500e+0,3.20e-1,
6.882600e+0,3.20e-1,
6.882700e+0,3.20e-1,
6.882800e+0,3.20e-1,
6.882900e+0,3.21e-1,
6.883000e+0,3.21e-1,
6.883100e+0,3.21e-1,
6.883200e+0,3.21e-1,
6.883300e+0,3.21e-1,
6.883400e+0,3.21e-1,
6.883500e+0,3.21e-1,
6.883600e+0,3.21e-1,
6.883700e+0,3.22e-1,
6.883800e+0,3.22e-1,
6.883900e+0,3.22e-1,
6.884000e+0,3.22e-1,
6.884100e+0,3.22e-1,
6.884200e+0,3.22e-1,
6.884300e+0,3.22e-1,
6.884400e+0,3.22e-1,
6.884500e+0,3.22e-1,
6.884600e+0,3.22e-1,
6.884700e+0,3.23e-1,
6.884800e+0,3.23e-1,
6.884900e+0,3.24e-1,
6.885000e+0,3.24e-1,
6.885100e+0,3.23e-1,
6.885200e+0,3.23e-1,
6.885300e+0,3.23e-1,
6.885400e+0,3.23e-1,
6.885500e+0,3.23e-1,
6.885600e+0,3.23e-1,
6.885700e+0,3.24e-1,
6.885800e+0,3.24e-1,
6.885900e+0,3.24e-1,
6.886000e+0,3.24e-1,
6.886100e+0,3.24e-1,
6.886200e+0,3.24e-1,
6.886300e+0,3.24e-1,
6.886400e+0,3.24e-1,
6.886500e+0,3.24e-1,
6.886600e+0,3.24e-1,
6.886700e+0,3.25e-1,
6.886800e+0,3.25e-1,
6.886900e+0,3.26e-1,
6.887000e+0,3.26e-1,
6.887100e+0,3.26e-1,
6.887200e+0,3.26e-1,
6.887300e+0,3.26e-1,
6.887400e+0,3.26e-1,
6.887500e+0,3.27e-1,
6.887600e+0,3.27e-1,
6.887700e+0,3.27e-1,
6.887800e+0,3.27e-1,
6.887900e+0,3.27e-1,
6.888000e+0,3.27e-1,
6.888100e+0,3.28e-1,
6.888200e+0,3.28e-1,
6.888300e+0,3.28e-1,
6.888400e+0,3.28e-1,
6.888500e+0,3.28e-1,
6.888600e+0,3.28e-1,
6.888700e+0,3.28e-1,
6.888800e+0,3.28e-1,
6.888900e+0,3.28e-1,
6.889000e+0,3.28e-1,
6.889100e+0,3.28e-1,
6.889200e+0,3.28e-1,
6.889300e+0,3.29e-1,
6.889400e+0,3.29e-1,
6.889500e+0,3.29e-1,
6.889600e+0,3.29e-1,
6.889700e+0,3.30e-1,
6.889800e+0,3.30e-1,
6.889900e+0,3.30e-1,
6.890000e+0,3.30e-1,
6.890100e+0,3.30e-1,
6.890200e+0,3.30e-1,
6.890300e+0,3.30e-1,
6.890400e+0,3.30e-1,
6.890500e+0,3.30e-1,
6.890600e+0,3.30e-1,
6.890700e+0,3.30e-1,
6.890800e+0,3.30e-1,
6.890900e+0,3.31e-1,
6.891000e+0,3.31e-1,
6.891100e+0,3.32e-1,
6.891200e+0,3.32e-1,
6.891300e+0,3.32e-1,
6.891400e+0,3.32e-1,
6.891500e+0,3.32e-1,
6.891600e+0,3.32e-1,
6.891700e+0,3.32e-1,
6.891800e+0,3.32e-1,
6.891900e+0,3.32e-1,
6.892000e+0,3.32e-1,
6.892100e+0,3.33e-1,
6.892200e+0,3.33e-1,
6.892300e+0,3.33e-1,
6.892400e+0,3.33e-1,
6.892500e+0,3.33e-1,
6.892600e+0,3.33e-1,
6.892700e+0,3.34e-1,
6.892800e+0,3.34e-1,
6.892900e+0,3.35e-1,
6.893000e+0,3.35e-1,
6.893100e+0,3.34e-1,
6.893200e+0,3.34e-1,
6.893300e+0,3.35e-1,
6.893400e+0,3.35e-1,
6.893500e+0,3.36e-1,
6.893600e+0,3.36e-1,
6.893700e+0,3.36e-1,
6.893800e+0,3.36e-1,
6.893900e+0,3.36e-1,
6.894000e+0,3.36e-1,
6.894100e+0,3.36e-1,
6.894200e+0,3.36e-1,
6.894300e+0,3.36e-1,
6.894400e+0,3.36e-1,
6.894500e+0,3.36e-1,
6.894600e+0,3.36e-1,
6.894700e+0,3.36e-1,
6.894800e+0,3.36e-1,
6.894900e+0,3.36e-1,
6.895000e+0,3.36e-1,
6.895100e+0,3.37e-1,
6.895200e+0,3.37e-1,
6.895300e+0,3.38e-1,
6.895400e+0,3.38e-1,
6.895500e+0,3.37e-1,
6.895600e+0,3.37e-1,
6.895700e+0,3.39e-1,
6.895800e+0,3.39e-1,
6.895900e+0,3.39e-1,
6.896000e+0,3.39e-1,
6.896100e+0,3.39e-1,
6.896200e+0,3.39e-1,
6.896300e+0,3.40e-1,
6.896400e+0,3.40e-1,
6.896500e+0,3.40e-1,
6.896600e+0,3.40e-1,
6.896700e+0,3.39e-1,
6.896800e+0,3.39e-1,
6.896900e+0,3.40e-1,
6.897000e+0,3.40e-1,
6.897100e+0,3.40e-1,
6.897200e+0,3.40e-1,
6.897300e+0,3.40e-1,
6.897400e+0,3.40e-1,
6.897500e+0,3.40e-1,
6.897600e+0,3.40e-1,
6.897700e+0,3.40e-1,
6.897800e+0,3.40e-1,
6.897900e+0,3.41e-1,
6.898000e+0,3.41e-1,
6.898100e+0,3.41e-1,
6.898200e+0,3.41e-1,
6.898300e+0,3.41e-1,
6.898400e+0,3.41e-1,
6.898500e+0,3.41e-1,
6.898600e+0,3.41e-1,
6.898700e+0,3.42e-1,
6.898800e+0,3.42e-1,
6.898900e+0,3.42e-1,
6.899000e+0,3.42e-1,
6.899100e+0,3.42e-1,
6.899200e+0,3.42e-1,
6.899300e+0,3.43e-1,
6.899400e+0,3.43e-1,
6.899500e+0,3.43e-1,
6.899600e+0,3.43e-1,
6.899700e+0,3.43e-1,
6.899800e+0,3.43e-1,
6.899900e+0,3.43e-1,
6.900000e+0,3.43e-1,
6.900100e+0,3.43e-1,
6.900200e+0,3.43e-1,
6.900300e+0,3.43e-1,
6.900400e+0,3.43e-1,
6.900500e+0,3.43e-1,
6.900600e+0,3.43e-1,
6.900700e+0,3.44e-1,
6.900800e+0,3.44e-1,
6.900900e+0,3.44e-1,
6.901000e+0,3.44e-1,
6.901100e+0,3.44e-1,
6.901200e+0,3.44e-1,
6.901300e+0,3.44e-1,
6.901400e+0,3.44e-1,
6.901500e+0,3.44e-1,
6.901600e+0,3.44e-1,
6.901700e+0,3.44e-1,
6.901800e+0,3.44e-1,
6.901900e+0,3.44e-1,
6.902000e+0,3.44e-1,
6.902100e+0,3.44e-1,
6.902200e+0,3.44e-1,
6.902300e+0,3.44e-1,
6.902400e+0,3.44e-1,
6.902500e+0,3.44e-1,
6.902600e+0,3.44e-1,
6.902700e+0,3.44e-1,
6.902800e+0,3.44e-1,
6.902900e+0,3.45e-1,
6.903000e+0,3.45e-1,
6.903100e+0,3.45e-1,
6.903200e+0,3.45e-1,
6.903300e+0,3.46e-1,
6.903400e+0,3.46e-1,
6.903500e+0,3.45e-1,
6.903600e+0,3.45e-1,
6.903700e+0,3.46e-1,
6.903800e+0,3.46e-1,
6.903900e+0,3.45e-1,
6.904000e+0,3.45e-1,
6.904100e+0,3.46e-1,
6.904200e+0,3.46e-1,
6.904300e+0,3.45e-1,
6.904400e+0,3.45e-1,
6.904500e+0,3.46e-1,
6.904600e+0,3.46e-1,
6.904700e+0,3.47e-1,
6.904800e+0,3.47e-1,
6.904900e+0,3.46e-1,
6.905000e+0,3.46e-1,
6.905100e+0,3.47e-1,
6.905200e+0,3.47e-1,
6.905300e+0,3.46e-1,
6.905400e+0,3.46e-1,
6.905500e+0,3.47e-1,
6.905600e+0,3.47e-1,
6.905700e+0,3.48e-1,
6.905800e+0,3.48e-1,
6.905900e+0,3.47e-1,
6.906000e+0,3.47e-1,
6.906100e+0,3.48e-1,
6.906200e+0,3.48e-1,
6.906300e+0,3.48e-1,
6.906400e+0,3.48e-1,
6.906500e+0,3.48e-1,
6.906600e+0,3.48e-1,
6.906700e+0,3.48e-1,
6.906800e+0,3.48e-1,
6.906900e+0,3.48e-1,
6.907000e+0,3.48e-1,
6.907100e+0,3.48e-1,
6.907200e+0,3.48e-1,
6.907300e+0,3.48e-1,
6.907400e+0,3.48e-1,
6.907500e+0,3.49e-1,
6.907600e+0,3.49e-1,
6.907700e+0,3.48e-1,
6.907800e+0,3.48e-1,
6.907900e+0,3.49e-1,
6.908000e+0,3.49e-1,
6.908100e+0,3.50e-1,
6.908200e+0,3.50e-1,
6.908300e+0,3.48e-1,
6.908400e+0,3.48e-1,
6.908500e+0,3.49e-1,
6.908600e+0,3.49e-1,
6.908700e+0,3.50e-1,
6.908800e+0,3.50e-1,
6.908900e+0,3.50e-1,
6.909000e+0,3.50e-1,
6.909100e+0,3.50e-1,
6.909200e+0,3.50e-1,
6.909300e+0,3.51e-1,
6.909400e+0,3.51e-1,
6.909500e+0,3.51e-1,
6.909600e+0,3.51e-1,
6.909700e+0,3.51e-1,
6.909800e+0,3.51e-1,
6.909900e+0,3.52e-1,
6.910000e+0,3.52e-1,
6.910100e+0,3.51e-1,
6.910200e+0,3.51e-1,
6.910300e+0,3.52e-1,
6.910400e+0,3.52e-1,
6.910500e+0,3.52e-1,
6.910600e+0,3.52e-1,
6.910700e+0,3.52e-1,
6.910800e+0,3.52e-1,
6.910900e+0,3.52e-1,
6.911000e+0,3.52e-1,
6.911100e+0,3.52e-1,
6.911200e+0,3.52e-1,
6.911300e+0,3.52e-1,
6.911400e+0,3.52e-1,
6.911500e+0,3.52e-1,
6.911600e+0,3.52e-1,
6.911700e+0,3.52e-1,
6.911800e+0,3.52e-1,
6.911900e+0,3.52e-1,
6.912000e+0,3.52e-1,
6.912100e+0,3.52e-1,
6.912200e+0,3.52e-1,
6.912300e+0,3.52e-1,
6.912400e+0,3.52e-1,
6.912500e+0,3.52e-1,
6.912600e+0,3.52e-1,
6.912700e+0,3.52e-1,
6.912800e+0,3.52e-1,
6.912900e+0,3.53e-1,
6.913000e+0,3.53e-1,
6.913100e+0,3.54e-1,
6.913200e+0,3.54e-1,
6.913300e+0,3.53e-1,
6.913400e+0,3.53e-1,
6.913500e+0,3.54e-1,
6.913600e+0,3.54e-1,
6.913700e+0,3.53e-1,
6.913800e+0,3.53e-1,
6.913900e+0,3.54e-1,
6.914000e+0,3.54e-1,
6.914100e+0,3.54e-1,
6.914200e+0,3.54e-1,
6.914300e+0,3.54e-1,
6.914400e+0,3.54e-1,
6.914500e+0,3.55e-1,
6.914600e+0,3.55e-1,
6.914700e+0,3.55e-1,
6.914800e+0,3.55e-1,
6.914900e+0,3.54e-1,
6.915000e+0,3.54e-1,
6.915100e+0,3.54e-1,
6.915200e+0,3.54e-1,
6.915300e+0,3.56e-1,
6.915400e+0,3.56e-1,
6.915500e+0,3.55e-1,
6.915600e+0,3.55e-1,
6.915700e+0,3.55e-1,
6.915800e+0,3.55e-1,
6.915900e+0,3.55e-1,
6.916000e+0,3.55e-1,
6.916100e+0,3.55e-1,
6.916200e+0,3.55e-1,
6.916300e+0,3.55e-1,
6.916400e+0,3.55e-1,
6.916500e+0,3.56e-1,
6.916600e+0,3.56e-1,
6.916700e+0,3.56e-1,
6.916800e+0,3.56e-1,
6.916900e+0,3.56e-1,
6.917000e+0,3.56e-1,
6.917100e+0,3.56e-1,
6.917200e+0,3.56e-1,
6.917300e+0,3.55e-1,
6.917400e+0,3.55e-1,
6.917500e+0,3.55e-1,
6.917600e+0,3.55e-1,
6.917700e+0,3.56e-1,
6.917800e+0,3.56e-1,
6.917900e+0,3.56e-1,
6.918000e+0,3.56e-1,
6.918100e+0,3.56e-1,
6.918200e+0,3.56e-1,
6.918300e+0,3.56e-1,
6.918400e+0,3.56e-1,
6.918500e+0,3.56e-1,
6.918600e+0,3.56e-1,
6.918700e+0,3.56e-1,
6.918800e+0,3.56e-1,
6.918900e+0,3.56e-1,
6.919000e+0,3.56e-1,
6.919100e+0,3.56e-1,
6.919200e+0,3.56e-1,
6.919300e+0,3.56e-1,
6.919400e+0,3.56e-1,
6.919500e+0,3.56e-1,
6.919600e+0,3.56e-1,
6.919700e+0,3.56e-1,
6.919800e+0,3.56e-1,
6.919900e+0,3.56e-1,
6.920000e+0,3.56e-1,
6.920100e+0,3.56e-1,
6.920200e+0,3.56e-1,
6.920300e+0,3.56e-1,
6.920400e+0,3.56e-1,
6.920500e+0,3.56e-1,
6.920600e+0,3.56e-1,
6.920700e+0,3.57e-1,
6.920800e+0,3.57e-1,
6.920900e+0,3.56e-1,
6.921000e+0,3.56e-1,
6.921100e+0,3.57e-1,
6.921200e+0,3.57e-1,
6.921300e+0,3.56e-1,
6.921400e+0,3.56e-1,
6.921500e+0,3.56e-1,
6.921600e+0,3.56e-1,
6.921700e+0,3.57e-1,
6.921800e+0,3.57e-1,
6.921900e+0,3.57e-1,
6.922000e+0,3.57e-1,
6.922100e+0,3.57e-1,
6.922200e+0,3.57e-1,
6.922300e+0,3.58e-1,
6.922400e+0,3.58e-1,
6.922500e+0,3.57e-1,
6.922600e+0,3.57e-1,
6.922700e+0,3.57e-1,
6.922800e+0,3.57e-1,
6.922900e+0,3.57e-1,
6.923000e+0,3.57e-1,
6.923100e+0,3.57e-1,
6.923200e+0,3.57e-1,
6.923300e+0,3.57e-1,
6.923400e+0,3.57e-1,
6.923500e+0,3.58e-1,
6.923600e+0,3.58e-1,
6.923700e+0,3.57e-1,
6.923800e+0,3.57e-1,
6.923900e+0,3.58e-1,
6.924000e+0,3.58e-1,
6.924100e+0,3.58e-1,
6.924200e+0,3.58e-1,
6.924300e+0,3.58e-1,
6.924400e+0,3.58e-1,
6.924500e+0,3.59e-1,
6.924600e+0,3.59e-1,
6.924700e+0,3.58e-1,
6.924800e+0,3.58e-1,
6.924900e+0,3.58e-1,
6.925000e+0,3.58e-1,
6.925100e+0,3.58e-1,
6.925200e+0,3.58e-1,
6.925300e+0,3.59e-1,
6.925400e+0,3.59e-1,
6.925500e+0,3.59e-1,
6.925600e+0,3.59e-1,
6.925700e+0,3.58e-1,
6.925800e+0,3.58e-1,
6.925900e+0,3.59e-1,
6.926000e+0,3.59e-1,
6.926100e+0,3.59e-1,
6.926200e+0,3.59e-1,
6.926300e+0,3.59e-1,
6.926400e+0,3.59e-1,
6.926500e+0,3.59e-1,
6.926600e+0,3.59e-1,
6.926700e+0,3.59e-1,
6.926800e+0,3.59e-1,
6.926900e+0,3.60e-1,
6.927000e+0,3.60e-1,
6.927100e+0,3.59e-1,
6.927200e+0,3.59e-1,
6.927300e+0,3.60e-1,
6.927400e+0,3.60e-1,
6.927500e+0,3.60e-1,
6.927600e+0,3.60e-1,
6.927700e+0,3.59e-1,
6.927800e+0,3.59e-1,
6.927900e+0,3.60e-1,
6.928000e+0,3.60e-1,
6.928100e+0,3.60e-1,
6.928200e+0,3.60e-1,
6.928300e+0,3.60e-1,
6.928400e+0,3.60e-1,
6.928500e+0,3.60e-1,
6.928600e+0,3.60e-1,
6.928700e+0,3.60e-1,
6.928800e+0,3.60e-1,
6.928900e+0,3.60e-1,
6.929000e+0,3.60e-1,
6.929100e+0,3.60e-1,
6.929200e+0,3.60e-1,
6.929300e+0,3.60e-1,
6.929400e+0,3.60e-1,
6.929500e+0,3.60e-1,
6.929600e+0,3.60e-1,
6.929700e+0,3.60e-1,
6.929800e+0,3.60e-1,
6.929900e+0,3.60e-1,
6.930000e+0,3.60e-1,
6.930100e+0,3.60e-1,
6.930200e+0,3.60e-1,
6.930300e+0,3.60e-1,
6.930400e+0,3.60e-1,
6.930500e+0,3.60e-1,
6.930600e+0,3.60e-1,
6.930700e+0,3.60e-1,
6.930800e+0,3.60e-1,
6.930900e+0,3.60e-1,
6.931000e+0,3.60e-1,
6.931100e+0,3.60e-1,
6.931200e+0,3.60e-1,
6.931300e+0,3.60e-1,
6.931400e+0,3.60e-1,
6.931500e+0,3.60e-1,
6.931600e+0,3.60e-1,
6.931700e+0,3.60e-1,
6.931800e+0,3.60e-1,
6.931900e+0,3.60e-1,
6.932000e+0,3.60e-1,
6.932100e+0,3.60e-1,
6.932200e+0,3.60e-1,
6.932300e+0,3.61e-1,
6.932400e+0,3.61e-1,
6.932500e+0,3.60e-1,
6.932600e+0,3.60e-1,
6.932700e+0,3.60e-1,
6.932800e+0,3.60e-1,
6.932900e+0,3.61e-1,
6.933000e+0,3.61e-1,
6.933100e+0,3.60e-1,
6.933200e+0,3.60e-1,
6.933300e+0,3.60e-1,
6.933400e+0,3.60e-1,
6.933500e+0,3.60e-1,
6.933600e+0,3.60e-1,
6.933700e+0,3.60e-1,
6.933800e+0,3.60e-1,
6.933900e+0,3.61e-1,
6.934000e+0,3.61e-1,
6.934100e+0,3.61e-1,
6.934200e+0,3.61e-1,
6.934300e+0,3.61e-1,
6.934400e+0,3.61e-1,
6.934500e+0,3.62e-1,
6.934600e+0,3.62e-1,
6.934700e+0,3.60e-1,
6.934800e+0,3.60e-1,
6.934900e+0,3.61e-1,
6.935000e+0,3.61e-1,
6.935100e+0,3.60e-1,
6.935200e+0,3.60e-1,
6.935300e+0,3.61e-1,
6.935400e+0,3.61e-1,
6.935500e+0,3.61e-1,
6.935600e+0,3.61e-1,
6.935700e+0,3.60e-1,
6.935800e+0,3.60e-1,
6.935900e+0,3.61e-1,
6.936000e+0,3.61e-1,
6.936100e+0,3.61e-1,
6.936200e+0,3.61e-1,
6.936300e+0,3.62e-1,
6.936400e+0,3.62e-1,
6.936500e+0,3.62e-1,
6.936600e+0,3.62e-1,
6.936700e+0,3.61e-1,
6.936800e+0,3.61e-1,
6.936900e+0,3.62e-1,
6.937000e+0,3.62e-1,
6.937100e+0,3.62e-1,
6.937200e+0,3.62e-1,
6.937300e+0,3.62e-1,
6.937400e+0,3.62e-1,
6.937500e+0,3.61e-1,
6.937600e+0,3.61e-1,
6.937700e+0,3.62e-1,
6.937800e+0,3.62e-1,
6.937900e+0,3.61e-1,
6.938000e+0,3.61e-1,
6.938100e+0,3.61e-1,
6.938200e+0,3.61e-1,
6.938300e+0,3.61e-1,
6.938400e+0,3.61e-1,
6.938500e+0,3.61e-1,
6.938600e+0,3.61e-1,
6.938700e+0,3.61e-1,
6.938800e+0,3.61e-1,
6.938900e+0,3.62e-1,
6.939000e+0,3.62e-1,
6.939100e+0,3.63e-1,
6.939200e+0,3.63e-1,
6.939300e+0,3.62e-1,
6.939400e+0,3.62e-1,
6.939500e+0,3.62e-1,
6.939600e+0,3.62e-1,
6.939700e+0,3.62e-1,
6.939800e+0,3.62e-1,
6.939900e+0,3.62e-1,
6.940000e+0,3.62e-1,
6.940100e+0,3.62e-1,
6.940200e+0,3.62e-1,
6.940300e+0,3.62e-1,
6.940400e+0,3.62e-1,
6.940500e+0,3.62e-1,
6.940600e+0,3.62e-1,
6.940700e+0,3.62e-1,
6.940800e+0,3.62e-1,
6.940900e+0,3.62e-1,
6.941000e+0,3.62e-1,
6.941100e+0,3.62e-1,
6.941200e+0,3.62e-1,
6.941300e+0,3.62e-1,
6.941400e+0,3.62e-1,
6.941500e+0,3.62e-1,
6.941600e+0,3.62e-1,
6.941700e+0,3.62e-1,
6.941800e+0,3.62e-1,
6.941900e+0,3.63e-1,
6.942000e+0,3.63e-1,
6.942100e+0,3.62e-1,
6.942200e+0,3.62e-1,
6.942300e+0,3.62e-1,
6.942400e+0,3.62e-1,
6.942500e+0,3.62e-1,
6.942600e+0,3.62e-1,
6.942700e+0,3.62e-1,
6.942800e+0,3.62e-1,
6.942900e+0,3.62e-1,
6.943000e+0,3.62e-1,
6.943100e+0,3.62e-1,
6.943200e+0,3.62e-1,
6.943300e+0,3.62e-1,
6.943400e+0,3.62e-1,
6.943500e+0,3.62e-1,
6.943600e+0,3.62e-1,
6.943700e+0,3.63e-1,
6.943800e+0,3.63e-1,
6.943900e+0,3.63e-1,
6.944000e+0,3.63e-1,
6.944100e+0,3.63e-1,
6.944200e+0,3.63e-1,
6.944300e+0,3.62e-1,
6.944400e+0,3.62e-1,
6.944500e+0,3.63e-1,
6.944600e+0,3.63e-1,
6.944700e+0,3.63e-1,
6.944800e+0,3.63e-1,
6.944900e+0,3.63e-1,
6.945000e+0,3.63e-1,
6.945100e+0,3.63e-1,
6.945200e+0,3.63e-1,
6.945300e+0,3.62e-1,
6.945400e+0,3.62e-1,
6.945500e+0,3.63e-1,
6.945600e+0,3.63e-1,
6.945700e+0,3.63e-1,
6.945800e+0,3.63e-1,
6.945900e+0,3.63e-1,
6.946000e+0,3.63e-1,
6.946100e+0,3.63e-1,
6.946200e+0,3.63e-1,
6.946300e+0,3.63e-1,
6.946400e+0,3.63e-1,
6.946500e+0,3.63e-1,
6.946600e+0,3.63e-1,
6.946700e+0,3.63e-1,
6.946800e+0,3.63e-1,
6.946900e+0,3.63e-1,
6.947000e+0,3.63e-1,
6.947100e+0,3.62e-1,
6.947200e+0,3.62e-1,
6.947300e+0,3.63e-1,
6.947400e+0,3.63e-1,
6.947500e+0,3.63e-1,
6.947600e+0,3.63e-1,
6.947700e+0,3.63e-1,
6.947800e+0,3.63e-1,
6.947900e+0,3.63e-1,
6.948000e+0,3.63e-1,
6.948100e+0,3.64e-1,
6.948200e+0,3.64e-1,
6.948300e+0,3.62e-1,
6.948400e+0,3.62e-1,
6.948500e+0,3.63e-1,
6.948600e+0,3.63e-1,
6.948700e+0,3.62e-1,
6.948800e+0,3.62e-1,
6.948900e+0,3.63e-1,
6.949000e+0,3.63e-1,
6.949100e+0,3.63e-1,
6.949200e+0,3.63e-1,
6.949300e+0,3.63e-1,
6.949400e+0,3.63e-1,
6.949500e+0,3.63e-1,
6.949600e+0,3.63e-1,
6.949700e+0,3.63e-1,
6.949800e+0,3.63e-1,
6.949900e+0,3.64e-1,
6.950000e+0,3.64e-1,
6.950100e+0,3.63e-1,
6.950200e+0,3.63e-1,
6.950300e+0,3.63e-1,
6.950400e+0,3.63e-1,
6.950500e+0,3.63e-1,
6.950600e+0,3.63e-1,
6.950700e+0,3.64e-1,
6.950800e+0,3.64e-1,
6.950900e+0,3.63e-1,
6.951000e+0,3.63e-1,
6.951100e+0,3.63e-1,
6.951200e+0,3.63e-1,
6.951300e+0,3.64e-1,
6.951400e+0,3.64e-1,
6.951500e+0,3.63e-1,
6.951600e+0,3.63e-1,
6.951700e+0,3.63e-1,
6.951800e+0,3.63e-1,
6.951900e+0,3.63e-1,
6.952000e+0,3.63e-1,
6.952100e+0,3.64e-1,
6.952200e+0,3.64e-1,
6.952300e+0,3.64e-1,
6.952400e+0,3.64e-1,
6.952500e+0,3.63e-1,
6.952600e+0,3.63e-1,
6.952700e+0,3.63e-1,
6.952800e+0,3.63e-1,
6.952900e+0,3.64e-1,
6.953000e+0,3.64e-1,
6.953100e+0,3.63e-1,
6.953200e+0,3.63e-1,
6.953300e+0,3.64e-1,
6.953400e+0,3.64e-1,
6.953500e+0,3.63e-1,
6.953600e+0,3.63e-1,
6.953700e+0,3.63e-1,
6.953800e+0,3.63e-1,
6.953900e+0,3.64e-1,
6.954000e+0,3.64e-1,
6.954100e+0,3.63e-1,
6.954200e+0,3.63e-1,
6.954300e+0,3.64e-1,
6.954400e+0,3.64e-1,
6.954500e+0,3.63e-1,
6.954600e+0,3.63e-1,
6.954700e+0,3.63e-1,
6.954800e+0,3.63e-1,
6.954900e+0,3.63e-1,
6.955000e+0,3.63e-1,
6.955100e+0,3.64e-1,
6.955200e+0,3.64e-1,
6.955300e+0,3.64e-1,
6.955400e+0,3.64e-1,
6.955500e+0,3.63e-1,
6.955600e+0,3.63e-1,
6.955700e+0,3.64e-1,
6.955800e+0,3.64e-1,
6.955900e+0,3.64e-1,
6.956000e+0,3.64e-1,
6.956100e+0,3.64e-1,
6.956200e+0,3.64e-1,
6.956300e+0,3.63e-1,
6.956400e+0,3.63e-1,
6.956500e+0,3.64e-1,
6.956600e+0,3.64e-1,
6.956700e+0,3.64e-1,
6.956800e+0,3.64e-1,
6.956900e+0,3.63e-1,
6.957000e+0,3.63e-1,
6.957100e+0,3.64e-1,
6.957200e+0,3.64e-1,
6.957300e+0,3.64e-1,
6.957400e+0,3.64e-1,
6.957500e+0,3.64e-1,
6.957600e+0,3.64e-1,
6.957700e+0,3.63e-1,
6.957800e+0,3.63e-1,
6.957900e+0,3.63e-1,
6.958000e+0,3.63e-1,
6.958100e+0,3.64e-1,
6.958200e+0,3.64e-1,
6.958300e+0,3.64e-1,
6.958400e+0,3.64e-1,
6.958500e+0,3.63e-1,
6.958600e+0,3.63e-1,
6.958700e+0,3.64e-1,
6.958800e+0,3.64e-1,
6.958900e+0,3.64e-1,
6.959000e+0,3.64e-1,
6.959100e+0,3.64e-1,
6.959200e+0,3.64e-1,
6.959300e+0,3.64e-1,
6.959400e+0,3.64e-1,
6.959500e+0,3.64e-1,
6.959600e+0,3.64e-1,
6.959700e+0,3.64e-1,
6.959800e+0,3.64e-1,
6.959900e+0,3.63e-1,
6.960000e+0,3.63e-1,
6.960100e+0,3.64e-1,
6.960200e+0,3.64e-1,
6.960300e+0,3.63e-1,
6.960400e+0,3.63e-1,
6.960500e+0,3.64e-1,
6.960600e+0,3.64e-1,
6.960700e+0,3.64e-1,
6.960800e+0,3.64e-1,
6.960900e+0,3.64e-1,
6.961000e+0,3.64e-1,
6.961100e+0,3.64e-1,
6.961200e+0,3.64e-1,
6.961300e+0,3.64e-1,
6.961400e+0,3.64e-1,
6.961500e+0,3.64e-1,
6.961600e+0,3.64e-1,
6.961700e+0,3.63e-1,
6.961800e+0,3.63e-1,
6.961900e+0,3.64e-1,
6.962000e+0,3.64e-1,
6.962100e+0,3.64e-1,
6.962200e+0,3.64e-1,
6.962300e+0,3.64e-1,
6.962400e+0,3.64e-1,
6.962500e+0,3.63e-1,
6.962600e+0,3.63e-1,
6.962700e+0,3.63e-1,
6.962800e+0,3.63e-1,
6.962900e+0,3.64e-1,
6.963000e+0,3.64e-1,
6.963100e+0,3.64e-1,
6.963200e+0,3.64e-1,
6.963300e+0,3.64e-1,
6.963400e+0,3.64e-1,
6.963500e+0,3.64e-1,
6.963600e+0,3.64e-1,
6.963700e+0,3.63e-1,
6.963800e+0,3.63e-1,
6.963900e+0,3.64e-1,
6.964000e+0,3.64e-1,
6.964100e+0,3.63e-1,
6.964200e+0,3.63e-1,
6.964300e+0,3.64e-1,
6.964400e+0,3.64e-1,
6.964500e+0,3.63e-1,
6.964600e+0,3.63e-1,
6.964700e+0,3.63e-1,
6.964800e+0,3.63e-1,
6.964900e+0,3.63e-1,
6.965000e+0,3.63e-1,
6.965100e+0,3.64e-1,
6.965200e+0,3.64e-1,
6.965300e+0,3.64e-1,
6.965400e+0,3.64e-1,
6.965500e+0,3.64e-1,
6.965600e+0,3.64e-1,
6.965700e+0,3.64e-1,
6.965800e+0,3.64e-1,
6.965900e+0,3.64e-1,
6.966000e+0,3.64e-1,
6.966100e+0,3.64e-1,
6.966200e+0,3.64e-1,
6.966300e+0,3.64e-1,
6.966400e+0,3.64e-1,
6.966500e+0,3.64e-1,
6.966600e+0,3.64e-1,
6.966700e+0,3.64e-1,
6.966800e+0,3.64e-1,
6.966900e+0,3.64e-1,
6.967000e+0,3.64e-1,
6.967100e+0,3.64e-1,
6.967200e+0,3.64e-1,
6.967300e+0,3.63e-1,
6.967400e+0,3.63e-1,
6.967500e+0,3.64e-1,
6.967600e+0,3.64e-1,
6.967700e+0,3.64e-1,
6.967800e+0,3.64e-1,
6.967900e+0,3.64e-1,
6.968000e+0,3.64e-1,
6.968100e+0,3.64e-1,
6.968200e+0,3.64e-1,
6.968300e+0,3.64e-1,
6.968400e+0,3.64e-1,
6.968500e+0,3.63e-1,
6.968600e+0,3.63e-1,
6.968700e+0,3.63e-1,
6.968800e+0,3.63e-1,
6.968900e+0,3.64e-1,
6.969000e+0,3.64e-1,
6.969100e+0,3.62e-1,
6.969200e+0,3.62e-1,
6.969300e+0,3.64e-1,
6.969400e+0,3.64e-1,
6.969500e+0,3.64e-1,
6.969600e+0,3.64e-1,
6.969700e+0,3.64e-1,
6.969800e+0,3.64e-1,
6.969900e+0,3.64e-1,
6.970000e+0,3.64e-1,
6.970100e+0,3.64e-1,
6.970200e+0,3.64e-1,
6.970300e+0,3.64e-1,
6.970400e+0,3.64e-1,
6.970500e+0,3.64e-1,
6.970600e+0,3.64e-1,
6.970700e+0,3.63e-1,
6.970800e+0,3.63e-1,
6.970900e+0,3.64e-1,
6.971000e+0,3.64e-1,
6.971100e+0,3.64e-1,
6.971200e+0,3.64e-1,
6.971300e+0,3.64e-1,
6.971400e+0,3.64e-1,
6.971500e+0,3.64e-1,
6.971600e+0,3.64e-1,
6.971700e+0,3.64e-1,
6.971800e+0,3.64e-1,
6.971900e+0,3.64e-1,
6.972000e+0,3.64e-1,
6.972100e+0,3.64e-1,
6.972200e+0,3.64e-1,
6.972300e+0,3.64e-1,
6.972400e+0,3.64e-1,
6.972500e+0,3.64e-1,
6.972600e+0,3.64e-1,
6.972700e+0,3.64e-1,
6.972800e+0,3.64e-1,
6.972900e+0,3.64e-1,
6.973000e+0,3.64e-1,
6.973100e+0,3.64e-1,
6.973200e+0,3.64e-1,
6.973300e+0,3.64e-1,
6.973400e+0,3.64e-1,
6.973500e+0,3.64e-1,
6.973600e+0,3.64e-1,
6.973700e+0,3.64e-1,
6.973800e+0,3.64e-1,
6.973900e+0,3.64e-1,
6.974000e+0,3.64e-1,
6.974100e+0,3.64e-1,
6.974200e+0,3.64e-1,
6.974300e+0,3.64e-1,
6.974400e+0,3.64e-1,
6.974500e+0,3.64e-1,
6.974600e+0,3.64e-1,
6.974700e+0,3.64e-1,
6.974800e+0,3.64e-1,
6.974900e+0,3.64e-1,
6.975000e+0,3.64e-1,
6.975100e+0,3.64e-1,
6.975200e+0,3.64e-1,
6.975300e+0,3.64e-1,
6.975400e+0,3.64e-1,
6.975500e+0,3.63e-1,
6.975600e+0,3.63e-1,
6.975700e+0,3.64e-1,
6.975800e+0,3.64e-1,
6.975900e+0,3.64e-1,
6.976000e+0,3.64e-1,
6.976100e+0,3.64e-1,
6.976200e+0,3.64e-1,
6.976300e+0,3.63e-1,
6.976400e+0,3.63e-1,
6.976500e+0,3.64e-1,
6.976600e+0,3.64e-1,
6.976700e+0,3.64e-1,
6.976800e+0,3.64e-1,
6.976900e+0,3.64e-1,
6.977000e+0,3.64e-1,
6.977100e+0,3.64e-1,
6.977200e+0,3.64e-1,
6.977300e+0,3.63e-1,
6.977400e+0,3.63e-1,
6.977500e+0,3.64e-1,
6.977600e+0,3.64e-1,
6.977700e+0,3.63e-1,
6.977800e+0,3.63e-1,
6.977900e+0,3.64e-1,
6.978000e+0,3.64e-1,
6.978100e+0,3.64e-1,
6.978200e+0,3.64e-1,
6.978300e+0,3.63e-1,
6.978400e+0,3.63e-1,
6.978500e+0,3.64e-1,
6.978600e+0,3.64e-1,
6.978700e+0,3.64e-1,
6.978800e+0,3.64e-1,
6.978900e+0,3.64e-1,
6.979000e+0,3.64e-1,
6.979100e+0,3.63e-1,
6.979200e+0,3.63e-1,
6.979300e+0,3.64e-1,
6.979400e+0,3.64e-1,
6.979500e+0,3.64e-1,
6.979600e+0,3.64e-1,
6.979700e+0,3.64e-1,
6.979800e+0,3.64e-1,
6.979900e+0,3.64e-1,
6.980000e+0,3.64e-1,
6.980100e+0,3.64e-1,
6.980200e+0,3.64e-1,
6.980300e+0,3.64e-1,
6.980400e+0,3.64e-1,
6.980500e+0,3.63e-1,
6.980600e+0,3.63e-1,
6.980700e+0,3.63e-1,
6.980800e+0,3.63e-1,
6.980900e+0,3.64e-1,
6.981000e+0,3.64e-1,
6.981100e+0,3.64e-1,
6.981200e+0,3.64e-1,
6.981300e+0,3.64e-1,
6.981400e+0,3.64e-1,
6.981500e+0,3.64e-1,
6.981600e+0,3.64e-1,
6.981700e+0,3.64e-1,
6.981800e+0,3.64e-1,
6.981900e+0,3.64e-1,
6.982000e+0,3.64e-1,
6.982100e+0,3.64e-1,
6.982200e+0,3.64e-1,
6.982300e+0,3.63e-1,
6.982400e+0,3.63e-1,
6.982500e+0,3.63e-1,
6.982600e+0,3.63e-1,
6.982700e+0,3.64e-1,
6.982800e+0,3.64e-1,
6.982900e+0,3.64e-1,
6.983000e+0,3.64e-1,
6.983100e+0,3.64e-1,
6.983200e+0,3.64e-1,
6.983300e+0,3.64e-1,
6.983400e+0,3.64e-1,
6.983500e+0,3.63e-1,
6.983600e+0,3.63e-1,
6.983700e+0,3.64e-1,
6.983800e+0,3.64e-1,
6.983900e+0,3.63e-1,
6.984000e+0,3.63e-1,
6.984100e+0,3.64e-1,
6.984200e+0,3.64e-1,
6.984300e+0,3.64e-1,
6.984400e+0,3.64e-1,
6.984500e+0,3.64e-1,
6.984600e+0,3.64e-1,
6.984700e+0,3.63e-1,
6.984800e+0,3.63e-1,
6.984900e+0,3.64e-1,
6.985000e+0,3.64e-1,
6.985100e+0,3.64e-1,
6.985200e+0,3.64e-1,
6.985300e+0,3.63e-1,
6.985400e+0,3.63e-1,
6.985500e+0,3.64e-1,
6.985600e+0,3.64e-1,
6.985700e+0,3.63e-1,
6.985800e+0,3.63e-1,
6.985900e+0,3.63e-1,
6.986000e+0,3.63e-1,
6.986100e+0,3.64e-1,
6.986200e+0,3.64e-1,
6.986300e+0,3.64e-1,
6.986400e+0,3.64e-1,
6.986500e+0,3.63e-1,
6.986600e+0,3.63e-1,
6.986700e+0,3.64e-1,
6.986800e+0,3.64e-1,
6.986900e+0,3.64e-1,
6.987000e+0,3.64e-1,
6.987100e+0,3.63e-1,
6.987200e+0,3.63e-1,
6.987300e+0,3.64e-1,
6.987400e+0,3.64e-1,
6.987500e+0,3.63e-1,
6.987600e+0,3.63e-1,
6.987700e+0,3.63e-1,
6.987800e+0,3.63e-1,
6.987900e+0,3.64e-1,
6.988000e+0,3.64e-1,
6.988100e+0,3.64e-1,
6.988200e+0,3.64e-1,
6.988300e+0,3.64e-1,
6.988400e+0,3.64e-1,
6.988500e+0,3.64e-1,
6.988600e+0,3.64e-1,
6.988700e+0,3.64e-1,
6.988800e+0,3.64e-1,
6.988900e+0,3.64e-1,
6.989000e+0,3.64e-1,
6.989100e+0,3.64e-1,
6.989200e+0,3.64e-1,
6.989300e+0,3.64e-1,
6.989400e+0,3.64e-1,
6.989500e+0,3.63e-1,
6.989600e+0,3.63e-1,
6.989700e+0,3.64e-1,
6.989800e+0,3.64e-1,
6.989900e+0,3.63e-1,
6.990000e+0,3.63e-1,
6.990100e+0,3.63e-1,
6.990200e+0,3.63e-1,
6.990300e+0,3.64e-1,
6.990400e+0,3.64e-1,
6.990500e+0,3.64e-1,
6.990600e+0,3.64e-1,
6.990700e+0,3.63e-1,
6.990800e+0,3.63e-1,
6.990900e+0,3.63e-1,
6.991000e+0,3.63e-1,
6.991100e+0,3.64e-1,
6.991200e+0,3.64e-1,
6.991300e+0,3.64e-1,
6.991400e+0,3.64e-1,
6.991500e+0,3.63e-1,
6.991600e+0,3.63e-1,
6.991700e+0,3.64e-1,
6.991800e+0,3.64e-1,
6.991900e+0,3.63e-1,
6.992000e+0,3.63e-1,
6.992100e+0,3.64e-1,
6.992200e+0,3.64e-1,
6.992300e+0,3.63e-1,
6.992400e+0,3.63e-1,
6.992500e+0,3.63e-1,
6.992600e+0,3.63e-1,
6.992700e+0,3.63e-1,
6.992800e+0,3.63e-1,
6.992900e+0,3.64e-1,
6.993000e+0,3.64e-1,
6.993100e+0,3.63e-1,
6.993200e+0,3.63e-1,
6.993300e+0,3.63e-1,
6.993400e+0,3.63e-1,
6.993500e+0,3.63e-1,
6.993600e+0,3.63e-1,
6.993700e+0,3.63e-1,
6.993800e+0,3.63e-1,
6.993900e+0,3.63e-1,
6.994000e+0,3.63e-1,
6.994100e+0,3.63e-1,
6.994200e+0,3.63e-1,
6.994300e+0,3.64e-1,
6.994400e+0,3.64e-1,
6.994500e+0,3.64e-1,
6.994600e+0,3.64e-1,
6.994700e+0,3.63e-1,
6.994800e+0,3.63e-1,
6.994900e+0,3.63e-1,
6.995000e+0,3.63e-1,
6.995100e+0,3.63e-1,
6.995200e+0,3.63e-1,
6.995300e+0,3.63e-1,
6.995400e+0,3.63e-1,
6.995500e+0,3.63e-1,
6.995600e+0,3.63e-1,
6.995700e+0,3.63e-1,
6.995800e+0,3.63e-1,
6.995900e+0,3.63e-1,
6.996000e+0,3.63e-1,
6.996100e+0,3.63e-1,
6.996200e+0,3.63e-1,
6.996300e+0,3.63e-1,
6.996400e+0,3.63e-1,
6.996500e+0,3.63e-1,
6.996600e+0,3.63e-1,
6.996700e+0,3.63e-1,
6.996800e+0,3.63e-1,
6.996900e+0,3.63e-1,
